build	date	time	subject	group	blockcode	blocknum	trialcode	trialnum	stimulusitem1	stimulusitem2	values.pointsthisturn	values.newtotalscore	response	latency	values.leftoption	values.rightoption	values.leftpic	values.rightpic	values.selecteddirn	values.selectedoption	values.turnnum	values.choicert	values.largegainpic_category	values.smallgainpic_category	values.smalllosspic_category	values.largelosspic_category	values.largegainpic	values.smallgainpic	values.smalllosspic	values.largelosspic	values.risky1pic	values.risky2pic	values.safe1pic	values.safe2pic
5.0.9.0	100117	22:29:32	1	1	initial_instructions	1	instructions_main	1	images/slide01.jpg	0	0	0	57	737	NA	NA	NA	NA	NA	NA	0	NA	tools	animals	places	faces	<%values.imagespath%>hammer.jpg	<%values.imagespath%>animal-silhouette-dog2nohead.jpg	<%values.imagespath%>house.jpg	<%values.imagespath%>face-03.jpg	<%values.imagespath%>dark-red-rectangle-risky.jpg	<%values.imagespath%>light-red-triangle-risky.jpg	<%values.imagespath%>dark-blue-circle-safe.jpg	<%values.imagespath%>light-blue-star-safe.jpg
5.0.9.0	100117	22:29:32	1	1	initial_instructions	1	instructions_main	2	images/slide02.jpg	0	0	0	57	397	NA	NA	NA	NA	NA	NA	0	NA	tools	animals	places	faces	<%values.imagespath%>hammer.jpg	<%values.imagespath%>animal-silhouette-dog2nohead.jpg	<%values.imagespath%>house.jpg	<%values.imagespath%>face-03.jpg	<%values.imagespath%>dark-red-rectangle-risky.jpg	<%values.imagespath%>light-red-triangle-risky.jpg	<%values.imagespath%>dark-blue-circle-safe.jpg	<%values.imagespath%>light-blue-star-safe.jpg
5.0.9.0	100117	22:29:32	1	1	initial_instructions	1	instructions_main	3	images/slide03.jpg	0	0	0	57	426	NA	NA	NA	NA	NA	NA	0	NA	tools	animals	places	faces	<%values.imagespath%>hammer.jpg	<%values.imagespath%>animal-silhouette-dog2nohead.jpg	<%values.imagespath%>house.jpg	<%values.imagespath%>face-03.jpg	<%values.imagespath%>dark-red-rectangle-risky.jpg	<%values.imagespath%>light-red-triangle-risky.jpg	<%values.imagespath%>dark-blue-circle-safe.jpg	<%values.imagespath%>light-blue-star-safe.jpg
5.0.9.0	100117	22:29:32	1	1	initial_instructions	1	instructions_main	4	images/slide06.jpg	0	0	0	57	375	NA	NA	NA	NA	NA	NA	0	NA	tools	animals	places	faces	<%values.imagespath%>hammer.jpg	<%values.imagespath%>animal-silhouette-dog2nohead.jpg	<%values.imagespath%>house.jpg	<%values.imagespath%>face-03.jpg	<%values.imagespath%>dark-red-rectangle-risky.jpg	<%values.imagespath%>light-red-triangle-risky.jpg	<%values.imagespath%>dark-blue-circle-safe.jpg	<%values.imagespath%>light-blue-star-safe.jpg
5.0.9.0	100117	22:29:32	1	1	initial_instructions	1	instructions_main	5	images/slide07.jpg	0	0	0	57	302	NA	NA	NA	NA	NA	NA	0	NA	tools	animals	places	faces	<%values.imagespath%>hammer.jpg	<%values.imagespath%>animal-silhouette-dog2nohead.jpg	<%values.imagespath%>house.jpg	<%values.imagespath%>face-03.jpg	<%values.imagespath%>dark-red-rectangle-risky.jpg	<%values.imagespath%>light-red-triangle-risky.jpg	<%values.imagespath%>dark-blue-circle-safe.jpg	<%values.imagespath%>light-blue-star-safe.jpg
5.0.9.0	100117	22:29:32	1	1	initial_instructions	1	instructions_dists	6	Each machine can give you any of the 4 types of stamps. However, the red machines are more likely to give you stamps that let you gain MANY points (tools, +10 points) but also stamps where you lose MANY points (faces, -9 points).    On the other hand, the blue machines are more likely to give you stamps where you gain LESS points (animals, +2 points) but also stamps where you lose LESS points (places, -1 points).  To remind you of this while playing, you will see numbers above each machine. The numbers in BOLD tell you the amount of points that machine is more likely to give you...             Press Spacebar to continue	images/group-redRisky-blueSafe.jpg	0	0	57	271	NA	NA	NA	NA	NA	NA	0	NA	tools	animals	places	faces	<%values.imagespath%>hammer.jpg	<%values.imagespath%>animal-silhouette-dog2nohead.jpg	<%values.imagespath%>house.jpg	<%values.imagespath%>face-03.jpg	<%values.imagespath%>dark-red-rectangle-risky.jpg	<%values.imagespath%>light-red-triangle-risky.jpg	<%values.imagespath%>dark-blue-circle-safe.jpg	<%values.imagespath%>light-blue-star-safe.jpg
5.0.9.0	100117	22:29:32	1	1	initial_instructions	1	instructions_dists	7	Note that, over the long run all the machines will give you the SAME amount of points. The only difference is in which types of stamps are more likely, ones that give you large gains and losses, vs smaller gains and losses.                    Press Spacebar to continue	images/group-redRisky-blueSafe.jpg	0	0	57	281	NA	NA	NA	NA	NA	NA	0	NA	tools	animals	places	faces	<%values.imagespath%>hammer.jpg	<%values.imagespath%>animal-silhouette-dog2nohead.jpg	<%values.imagespath%>house.jpg	<%values.imagespath%>face-03.jpg	<%values.imagespath%>dark-red-rectangle-risky.jpg	<%values.imagespath%>light-red-triangle-risky.jpg	<%values.imagespath%>dark-blue-circle-safe.jpg	<%values.imagespath%>light-blue-star-safe.jpg
5.0.9.0	100117	22:29:32	1	1	initial_instructions	1	instructionslides_selectright	8	images/slide09.jpg	0	0	0	36	2980	NA	NA	NA	NA	NA	NA	0	NA	tools	animals	places	faces	<%values.imagespath%>hammer.jpg	<%values.imagespath%>animal-silhouette-dog2nohead.jpg	<%values.imagespath%>house.jpg	<%values.imagespath%>face-03.jpg	<%values.imagespath%>dark-red-rectangle-risky.jpg	<%values.imagespath%>light-red-triangle-risky.jpg	<%values.imagespath%>dark-blue-circle-safe.jpg	<%values.imagespath%>light-blue-star-safe.jpg
5.0.9.0	100117	22:29:32	1	1	initial_instructions	1	instructionslides_selectleft	9	images/slide10.jpg	0	0	0	33	1268	NA	NA	NA	NA	NA	NA	0	NA	tools	animals	places	faces	<%values.imagespath%>hammer.jpg	<%values.imagespath%>animal-silhouette-dog2nohead.jpg	<%values.imagespath%>house.jpg	<%values.imagespath%>face-03.jpg	<%values.imagespath%>dark-red-rectangle-risky.jpg	<%values.imagespath%>light-red-triangle-risky.jpg	<%values.imagespath%>dark-blue-circle-safe.jpg	<%values.imagespath%>light-blue-star-safe.jpg
5.0.9.0	100117	22:29:32	1	1	initial_instructions	1	instructionSlidesLastSection	10	images/slide14.jpg	0	0	0	57	759	NA	NA	NA	NA	NA	NA	0	NA	tools	animals	places	faces	<%values.imagespath%>hammer.jpg	<%values.imagespath%>animal-silhouette-dog2nohead.jpg	<%values.imagespath%>house.jpg	<%values.imagespath%>face-03.jpg	<%values.imagespath%>dark-red-rectangle-risky.jpg	<%values.imagespath%>light-red-triangle-risky.jpg	<%values.imagespath%>dark-blue-circle-safe.jpg	<%values.imagespath%>light-blue-star-safe.jpg
5.0.9.0	100117	22:29:32	1	1	initial_instructions	1	instructionSlidesLastSection	11	images/slide15.jpg	0	0	0	57	342	NA	NA	NA	NA	NA	NA	0	NA	tools	animals	places	faces	<%values.imagespath%>hammer.jpg	<%values.imagespath%>animal-silhouette-dog2nohead.jpg	<%values.imagespath%>house.jpg	<%values.imagespath%>face-03.jpg	<%values.imagespath%>dark-red-rectangle-risky.jpg	<%values.imagespath%>light-red-triangle-risky.jpg	<%values.imagespath%>dark-blue-circle-safe.jpg	<%values.imagespath%>light-blue-star-safe.jpg
5.0.9.0	100117	22:29:32	1	1	initial_instructions	1	instructionSlidesLastSection	12	images/slide16.jpg	0	0	0	57	318	NA	NA	NA	NA	NA	NA	0	NA	tools	animals	places	faces	<%values.imagespath%>hammer.jpg	<%values.imagespath%>animal-silhouette-dog2nohead.jpg	<%values.imagespath%>house.jpg	<%values.imagespath%>face-03.jpg	<%values.imagespath%>dark-red-rectangle-risky.jpg	<%values.imagespath%>light-red-triangle-risky.jpg	<%values.imagespath%>dark-blue-circle-safe.jpg	<%values.imagespath%>light-blue-star-safe.jpg
5.0.9.0	100117	22:29:32	1	1	testblock	2	safe2question	2	images/light-blue-star-safe.jpg	Why did you choose this machine? Press:              1 = 'To avoid -9'             2 = 'To avoid -1'             3 = 'To gain  2'             4 = 'To gain  10'	0	0	3	2744	safe2	risky1	<%values.imagespath%>light-blue-star-safe.jpg	<%values.imagespath%>dark-red-rectangle-risky.jpg	left	safe2	1	706	tools	animals	places	faces	<%values.imagespath%>hammer.jpg	<%values.imagespath%>animal-silhouette-dog2nohead.jpg	<%values.imagespath%>house.jpg	<%values.imagespath%>face-03.jpg	<%values.imagespath%>dark-red-rectangle-risky.jpg	<%values.imagespath%>light-red-triangle-risky.jpg	<%values.imagespath%>dark-blue-circle-safe.jpg	<%values.imagespath%>light-blue-star-safe.jpg
5.0.9.0	100117	22:29:32	1	1	testblock	2	smallloss	3	images/house.jpg	2	-1	-1	0	0	safe2	risky1	<%values.imagespath%>light-blue-star-safe.jpg	<%values.imagespath%>dark-red-rectangle-risky.jpg	left	safe2	1	706	tools	animals	places	faces	<%values.imagespath%>hammer.jpg	<%values.imagespath%>animal-silhouette-dog2nohead.jpg	<%values.imagespath%>house.jpg	<%values.imagespath%>face-03.jpg	<%values.imagespath%>dark-red-rectangle-risky.jpg	<%values.imagespath%>light-red-triangle-risky.jpg	<%values.imagespath%>dark-blue-circle-safe.jpg	<%values.imagespath%>light-blue-star-safe.jpg
5.0.9.0	100117	22:29:32	1	1	testblock	2	safe2question	5	images/light-blue-star-safe.jpg	Why did you choose this machine? Press:              1 = 'To avoid -9'             2 = 'To avoid -1'             3 = 'To gain  2'             4 = 'To gain  10'	-1	-1	4	608	risky2	safe2	<%values.imagespath%>light-red-triangle-risky.jpg	<%values.imagespath%>light-blue-star-safe.jpg	right	safe2	2	794	tools	animals	places	faces	<%values.imagespath%>hammer.jpg	<%values.imagespath%>animal-silhouette-dog2nohead.jpg	<%values.imagespath%>house.jpg	<%values.imagespath%>face-03.jpg	<%values.imagespath%>dark-red-rectangle-risky.jpg	<%values.imagespath%>light-red-triangle-risky.jpg	<%values.imagespath%>dark-blue-circle-safe.jpg	<%values.imagespath%>light-blue-star-safe.jpg
5.0.9.0	100117	22:29:32	1	1	testblock	2	largegain	6	images/hammer.jpg	10	10	9	0	0	risky2	safe2	<%values.imagespath%>light-red-triangle-risky.jpg	<%values.imagespath%>light-blue-star-safe.jpg	right	safe2	2	794	tools	animals	places	faces	<%values.imagespath%>hammer.jpg	<%values.imagespath%>animal-silhouette-dog2nohead.jpg	<%values.imagespath%>house.jpg	<%values.imagespath%>face-03.jpg	<%values.imagespath%>dark-red-rectangle-risky.jpg	<%values.imagespath%>light-red-triangle-risky.jpg	<%values.imagespath%>dark-blue-circle-safe.jpg	<%values.imagespath%>light-blue-star-safe.jpg
5.0.9.0	100117	22:29:32	1	1	testblock	2	risky2question	8	images/light-red-triangle-risky.jpg	Why did you choose this machine? Press:              1 = 'To avoid -9'             2 = 'To avoid -1'             3 = 'To gain  2'             4 = 'To gain  10'	10	9	4	338	safe2	risky2	<%values.imagespath%>light-blue-star-safe.jpg	<%values.imagespath%>light-red-triangle-risky.jpg	right	risky2	3	667	tools	animals	places	faces	<%values.imagespath%>hammer.jpg	<%values.imagespath%>animal-silhouette-dog2nohead.jpg	<%values.imagespath%>house.jpg	<%values.imagespath%>face-03.jpg	<%values.imagespath%>dark-red-rectangle-risky.jpg	<%values.imagespath%>light-red-triangle-risky.jpg	<%values.imagespath%>dark-blue-circle-safe.jpg	<%values.imagespath%>light-blue-star-safe.jpg
5.0.9.0	100117	22:29:32	1	1	testblock	2	largeloss	9	images/face-03.jpg	-9	-9	0	0	0	safe2	risky2	<%values.imagespath%>light-blue-star-safe.jpg	<%values.imagespath%>light-red-triangle-risky.jpg	right	risky2	3	667	tools	animals	places	faces	<%values.imagespath%>hammer.jpg	<%values.imagespath%>animal-silhouette-dog2nohead.jpg	<%values.imagespath%>house.jpg	<%values.imagespath%>face-03.jpg	<%values.imagespath%>dark-red-rectangle-risky.jpg	<%values.imagespath%>light-red-triangle-risky.jpg	<%values.imagespath%>dark-blue-circle-safe.jpg	<%values.imagespath%>light-blue-star-safe.jpg
5.0.9.0	100117	22:29:32	1	1	testblock	2	safe2question	11	images/light-blue-star-safe.jpg	Why did you choose this machine? Press:              1 = 'To avoid -9'             2 = 'To avoid -1'             3 = 'To gain  2'             4 = 'To gain  10'	-9	0	3	194	risky2	safe2	<%values.imagespath%>light-red-triangle-risky.jpg	<%values.imagespath%>light-blue-star-safe.jpg	right	safe2	4	295	tools	animals	places	faces	<%values.imagespath%>hammer.jpg	<%values.imagespath%>animal-silhouette-dog2nohead.jpg	<%values.imagespath%>house.jpg	<%values.imagespath%>face-03.jpg	<%values.imagespath%>dark-red-rectangle-risky.jpg	<%values.imagespath%>light-red-triangle-risky.jpg	<%values.imagespath%>dark-blue-circle-safe.jpg	<%values.imagespath%>light-blue-star-safe.jpg
5.0.9.0	100117	22:29:32	1	1	testblock	2	smallgain	12	images/animal-silhouette-dog2nohead.jpg	2	2	2	0	0	risky2	safe2	<%values.imagespath%>light-red-triangle-risky.jpg	<%values.imagespath%>light-blue-star-safe.jpg	right	safe2	4	295	tools	animals	places	faces	<%values.imagespath%>hammer.jpg	<%values.imagespath%>animal-silhouette-dog2nohead.jpg	<%values.imagespath%>house.jpg	<%values.imagespath%>face-03.jpg	<%values.imagespath%>dark-red-rectangle-risky.jpg	<%values.imagespath%>light-red-triangle-risky.jpg	<%values.imagespath%>dark-blue-circle-safe.jpg	<%values.imagespath%>light-blue-star-safe.jpg
5.0.9.0	100117	22:29:32	1	1	testblock	2	risky2question	14	images/light-red-triangle-risky.jpg	Why did you choose this machine? Press:              1 = 'To avoid -9'             2 = 'To avoid -1'             3 = 'To gain  2'             4 = 'To gain  10'	2	2	3	217	safe1	risky2	<%values.imagespath%>dark-blue-circle-safe.jpg	<%values.imagespath%>light-red-triangle-risky.jpg	right	risky2	5	78	tools	animals	places	faces	<%values.imagespath%>hammer.jpg	<%values.imagespath%>animal-silhouette-dog2nohead.jpg	<%values.imagespath%>house.jpg	<%values.imagespath%>face-03.jpg	<%values.imagespath%>dark-red-rectangle-risky.jpg	<%values.imagespath%>light-red-triangle-risky.jpg	<%values.imagespath%>dark-blue-circle-safe.jpg	<%values.imagespath%>light-blue-star-safe.jpg
5.0.9.0	100117	22:29:32	1	1	testblock	2	largegain	15	images/hammer.jpg	10	10	12	0	0	safe1	risky2	<%values.imagespath%>dark-blue-circle-safe.jpg	<%values.imagespath%>light-red-triangle-risky.jpg	right	risky2	5	78	tools	animals	places	faces	<%values.imagespath%>hammer.jpg	<%values.imagespath%>animal-silhouette-dog2nohead.jpg	<%values.imagespath%>house.jpg	<%values.imagespath%>face-03.jpg	<%values.imagespath%>dark-red-rectangle-risky.jpg	<%values.imagespath%>light-red-triangle-risky.jpg	<%values.imagespath%>dark-blue-circle-safe.jpg	<%values.imagespath%>light-blue-star-safe.jpg
5.0.9.0	100117	22:29:32	1	1	testblock	2	safe2question	17	images/light-blue-star-safe.jpg	Why did you choose this machine? Press:              1 = 'To avoid -9'             2 = 'To avoid -1'             3 = 'To gain  2'             4 = 'To gain  10'	10	12	3	137	risky1	safe2	<%values.imagespath%>dark-red-rectangle-risky.jpg	<%values.imagespath%>light-blue-star-safe.jpg	right	safe2	6	186	tools	animals	places	faces	<%values.imagespath%>hammer.jpg	<%values.imagespath%>animal-silhouette-dog2nohead.jpg	<%values.imagespath%>house.jpg	<%values.imagespath%>face-03.jpg	<%values.imagespath%>dark-red-rectangle-risky.jpg	<%values.imagespath%>light-red-triangle-risky.jpg	<%values.imagespath%>dark-blue-circle-safe.jpg	<%values.imagespath%>light-blue-star-safe.jpg
5.0.9.0	100117	22:29:32	1	1	testblock	2	smallloss	18	images/house.jpg	2	-1	11	0	0	risky1	safe2	<%values.imagespath%>dark-red-rectangle-risky.jpg	<%values.imagespath%>light-blue-star-safe.jpg	right	safe2	6	186	tools	animals	places	faces	<%values.imagespath%>hammer.jpg	<%values.imagespath%>animal-silhouette-dog2nohead.jpg	<%values.imagespath%>house.jpg	<%values.imagespath%>face-03.jpg	<%values.imagespath%>dark-red-rectangle-risky.jpg	<%values.imagespath%>light-red-triangle-risky.jpg	<%values.imagespath%>dark-blue-circle-safe.jpg	<%values.imagespath%>light-blue-star-safe.jpg
5.0.9.0	100117	22:29:32	1	1	testblock	2	risky2question	20	images/light-red-triangle-risky.jpg	Why did you choose this machine? Press:              1 = 'To avoid -9'             2 = 'To avoid -1'             3 = 'To gain  2'             4 = 'To gain  10'	-1	11	3	93	safe1	risky2	<%values.imagespath%>dark-blue-circle-safe.jpg	<%values.imagespath%>light-red-triangle-risky.jpg	right	risky2	7	3	tools	animals	places	faces	<%values.imagespath%>hammer.jpg	<%values.imagespath%>animal-silhouette-dog2nohead.jpg	<%values.imagespath%>house.jpg	<%values.imagespath%>face-03.jpg	<%values.imagespath%>dark-red-rectangle-risky.jpg	<%values.imagespath%>light-red-triangle-risky.jpg	<%values.imagespath%>dark-blue-circle-safe.jpg	<%values.imagespath%>light-blue-star-safe.jpg
5.0.9.0	100117	22:29:32	1	1	testblock	2	smallloss	21	images/house.jpg	2	-1	10	0	0	safe1	risky2	<%values.imagespath%>dark-blue-circle-safe.jpg	<%values.imagespath%>light-red-triangle-risky.jpg	right	risky2	7	3	tools	animals	places	faces	<%values.imagespath%>hammer.jpg	<%values.imagespath%>animal-silhouette-dog2nohead.jpg	<%values.imagespath%>house.jpg	<%values.imagespath%>face-03.jpg	<%values.imagespath%>dark-red-rectangle-risky.jpg	<%values.imagespath%>light-red-triangle-risky.jpg	<%values.imagespath%>dark-blue-circle-safe.jpg	<%values.imagespath%>light-blue-star-safe.jpg
5.0.9.0	100117	22:29:32	1	1	testblock	2	safe1question	23	images/dark-blue-circle-safe.jpg	Why did you choose this machine? Press:              1 = 'To avoid -9'             2 = 'To avoid -1'             3 = 'To gain  2'             4 = 'To gain  10'	-1	10	3	90	risky2	safe1	<%values.imagespath%>light-red-triangle-risky.jpg	<%values.imagespath%>dark-blue-circle-safe.jpg	right	safe1	8	5	tools	animals	places	faces	<%values.imagespath%>hammer.jpg	<%values.imagespath%>animal-silhouette-dog2nohead.jpg	<%values.imagespath%>house.jpg	<%values.imagespath%>face-03.jpg	<%values.imagespath%>dark-red-rectangle-risky.jpg	<%values.imagespath%>light-red-triangle-risky.jpg	<%values.imagespath%>dark-blue-circle-safe.jpg	<%values.imagespath%>light-blue-star-safe.jpg
5.0.9.0	100117	22:29:32	1	1	testblock	2	smallgain	24	images/animal-silhouette-dog2nohead.jpg	2	2	12	0	0	risky2	safe1	<%values.imagespath%>light-red-triangle-risky.jpg	<%values.imagespath%>dark-blue-circle-safe.jpg	right	safe1	8	5	tools	animals	places	faces	<%values.imagespath%>hammer.jpg	<%values.imagespath%>animal-silhouette-dog2nohead.jpg	<%values.imagespath%>house.jpg	<%values.imagespath%>face-03.jpg	<%values.imagespath%>dark-red-rectangle-risky.jpg	<%values.imagespath%>light-red-triangle-risky.jpg	<%values.imagespath%>dark-blue-circle-safe.jpg	<%values.imagespath%>light-blue-star-safe.jpg
5.0.9.0	100117	22:29:32	1	1	testblock	2	risky1question	26	images/dark-red-rectangle-risky.jpg	Why did you choose this machine? Press:              1 = 'To avoid -9'             2 = 'To avoid -1'             3 = 'To gain  2'             4 = 'To gain  10'	2	12	3	97	safe2	risky1	<%values.imagespath%>light-blue-star-safe.jpg	<%values.imagespath%>dark-red-rectangle-risky.jpg	right	safe1	9	4	tools	animals	places	faces	<%values.imagespath%>hammer.jpg	<%values.imagespath%>animal-silhouette-dog2nohead.jpg	<%values.imagespath%>house.jpg	<%values.imagespath%>face-03.jpg	<%values.imagespath%>dark-red-rectangle-risky.jpg	<%values.imagespath%>light-red-triangle-risky.jpg	<%values.imagespath%>dark-blue-circle-safe.jpg	<%values.imagespath%>light-blue-star-safe.jpg
5.0.9.0	100117	22:29:32	1	1	testblock	2	largegain	27	images/hammer.jpg	10	10	22	0	0	safe2	risky1	<%values.imagespath%>light-blue-star-safe.jpg	<%values.imagespath%>dark-red-rectangle-risky.jpg	right	safe1	9	4	tools	animals	places	faces	<%values.imagespath%>hammer.jpg	<%values.imagespath%>animal-silhouette-dog2nohead.jpg	<%values.imagespath%>house.jpg	<%values.imagespath%>face-03.jpg	<%values.imagespath%>dark-red-rectangle-risky.jpg	<%values.imagespath%>light-red-triangle-risky.jpg	<%values.imagespath%>dark-blue-circle-safe.jpg	<%values.imagespath%>light-blue-star-safe.jpg
5.0.9.0	100117	22:29:32	1	1	testblock	2	safe2question	29	images/light-blue-star-safe.jpg	Why did you choose this machine? Press:              1 = 'To avoid -9'             2 = 'To avoid -1'             3 = 'To gain  2'             4 = 'To gain  10'	10	22	3	145	risky1	safe2	<%values.imagespath%>dark-red-rectangle-risky.jpg	<%values.imagespath%>light-blue-star-safe.jpg	right	safe2	10	144	tools	animals	places	faces	<%values.imagespath%>hammer.jpg	<%values.imagespath%>animal-silhouette-dog2nohead.jpg	<%values.imagespath%>house.jpg	<%values.imagespath%>face-03.jpg	<%values.imagespath%>dark-red-rectangle-risky.jpg	<%values.imagespath%>light-red-triangle-risky.jpg	<%values.imagespath%>dark-blue-circle-safe.jpg	<%values.imagespath%>light-blue-star-safe.jpg
5.0.9.0	100117	22:29:32	1	1	testblock	2	smallgain	30	images/animal-silhouette-dog2nohead.jpg	2	2	24	0	0	risky1	safe2	<%values.imagespath%>dark-red-rectangle-risky.jpg	<%values.imagespath%>light-blue-star-safe.jpg	right	safe2	10	144	tools	animals	places	faces	<%values.imagespath%>hammer.jpg	<%values.imagespath%>animal-silhouette-dog2nohead.jpg	<%values.imagespath%>house.jpg	<%values.imagespath%>face-03.jpg	<%values.imagespath%>dark-red-rectangle-risky.jpg	<%values.imagespath%>light-red-triangle-risky.jpg	<%values.imagespath%>dark-blue-circle-safe.jpg	<%values.imagespath%>light-blue-star-safe.jpg
5.0.9.0	100117	22:29:32	1	1	testblock	2	risky1question	32	images/dark-red-rectangle-risky.jpg	Why did you choose this machine? Press:              1 = 'To avoid -9'             2 = 'To avoid -1'             3 = 'To gain  2'             4 = 'To gain  10'	2	24	3	168	safe2	risky1	<%values.imagespath%>light-blue-star-safe.jpg	<%values.imagespath%>dark-red-rectangle-risky.jpg	right	safe2	11	136	tools	animals	places	faces	<%values.imagespath%>hammer.jpg	<%values.imagespath%>animal-silhouette-dog2nohead.jpg	<%values.imagespath%>house.jpg	<%values.imagespath%>face-03.jpg	<%values.imagespath%>dark-red-rectangle-risky.jpg	<%values.imagespath%>light-red-triangle-risky.jpg	<%values.imagespath%>dark-blue-circle-safe.jpg	<%values.imagespath%>light-blue-star-safe.jpg
5.0.9.0	100117	22:29:32	1	1	testblock	2	largeloss	33	images/face-03.jpg	-9	-9	15	0	0	safe2	risky1	<%values.imagespath%>light-blue-star-safe.jpg	<%values.imagespath%>dark-red-rectangle-risky.jpg	right	safe2	11	136	tools	animals	places	faces	<%values.imagespath%>hammer.jpg	<%values.imagespath%>animal-silhouette-dog2nohead.jpg	<%values.imagespath%>house.jpg	<%values.imagespath%>face-03.jpg	<%values.imagespath%>dark-red-rectangle-risky.jpg	<%values.imagespath%>light-red-triangle-risky.jpg	<%values.imagespath%>dark-blue-circle-safe.jpg	<%values.imagespath%>light-blue-star-safe.jpg
5.0.9.0	100117	22:29:32	1	1	testblock	2	safe1question	35	images/dark-blue-circle-safe.jpg	Why did you choose this machine? Press:              1 = 'To avoid -9'             2 = 'To avoid -1'             3 = 'To gain  2'             4 = 'To gain  10'	-9	15	3	181	risky2	safe1	<%values.imagespath%>light-red-triangle-risky.jpg	<%values.imagespath%>dark-blue-circle-safe.jpg	right	safe1	12	124	tools	animals	places	faces	<%values.imagespath%>hammer.jpg	<%values.imagespath%>animal-silhouette-dog2nohead.jpg	<%values.imagespath%>house.jpg	<%values.imagespath%>face-03.jpg	<%values.imagespath%>dark-red-rectangle-risky.jpg	<%values.imagespath%>light-red-triangle-risky.jpg	<%values.imagespath%>dark-blue-circle-safe.jpg	<%values.imagespath%>light-blue-star-safe.jpg
5.0.9.0	100117	22:29:32	1	1	testblock	2	smallgain	36	images/animal-silhouette-dog2nohead.jpg	2	2	17	0	0	risky2	safe1	<%values.imagespath%>light-red-triangle-risky.jpg	<%values.imagespath%>dark-blue-circle-safe.jpg	right	safe1	12	124	tools	animals	places	faces	<%values.imagespath%>hammer.jpg	<%values.imagespath%>animal-silhouette-dog2nohead.jpg	<%values.imagespath%>house.jpg	<%values.imagespath%>face-03.jpg	<%values.imagespath%>dark-red-rectangle-risky.jpg	<%values.imagespath%>light-red-triangle-risky.jpg	<%values.imagespath%>dark-blue-circle-safe.jpg	<%values.imagespath%>light-blue-star-safe.jpg
5.0.9.0	100117	22:29:32	1	1	testblock	2	risky2question	38	images/light-red-triangle-risky.jpg	Why did you choose this machine? Press:              1 = 'To avoid -9'             2 = 'To avoid -1'             3 = 'To gain  2'             4 = 'To gain  10'	2	17	3	29	safe2	risky2	<%values.imagespath%>light-blue-star-safe.jpg	<%values.imagespath%>light-red-triangle-risky.jpg	right	risky2	13	57	tools	animals	places	faces	<%values.imagespath%>hammer.jpg	<%values.imagespath%>animal-silhouette-dog2nohead.jpg	<%values.imagespath%>house.jpg	<%values.imagespath%>face-03.jpg	<%values.imagespath%>dark-red-rectangle-risky.jpg	<%values.imagespath%>light-red-triangle-risky.jpg	<%values.imagespath%>dark-blue-circle-safe.jpg	<%values.imagespath%>light-blue-star-safe.jpg
5.0.9.0	100117	22:29:32	1	1	testblock	2	largegain	39	images/hammer.jpg	10	10	27	0	0	safe2	risky2	<%values.imagespath%>light-blue-star-safe.jpg	<%values.imagespath%>light-red-triangle-risky.jpg	right	risky2	13	57	tools	animals	places	faces	<%values.imagespath%>hammer.jpg	<%values.imagespath%>animal-silhouette-dog2nohead.jpg	<%values.imagespath%>house.jpg	<%values.imagespath%>face-03.jpg	<%values.imagespath%>dark-red-rectangle-risky.jpg	<%values.imagespath%>light-red-triangle-risky.jpg	<%values.imagespath%>dark-blue-circle-safe.jpg	<%values.imagespath%>light-blue-star-safe.jpg
5.0.9.0	100117	22:29:32	1	1	testblock	2	safe2question	41	images/light-blue-star-safe.jpg	Why did you choose this machine? Press:              1 = 'To avoid -9'             2 = 'To avoid -1'             3 = 'To gain  2'             4 = 'To gain  10'	10	27	3	45	risky1	safe2	<%values.imagespath%>dark-red-rectangle-risky.jpg	<%values.imagespath%>light-blue-star-safe.jpg	right	safe2	14	32	tools	animals	places	faces	<%values.imagespath%>hammer.jpg	<%values.imagespath%>animal-silhouette-dog2nohead.jpg	<%values.imagespath%>house.jpg	<%values.imagespath%>face-03.jpg	<%values.imagespath%>dark-red-rectangle-risky.jpg	<%values.imagespath%>light-red-triangle-risky.jpg	<%values.imagespath%>dark-blue-circle-safe.jpg	<%values.imagespath%>light-blue-star-safe.jpg
5.0.9.0	100117	22:29:32	1	1	testblock	2	smallgain	42	images/animal-silhouette-dog2nohead.jpg	2	2	29	0	0	risky1	safe2	<%values.imagespath%>dark-red-rectangle-risky.jpg	<%values.imagespath%>light-blue-star-safe.jpg	right	safe2	14	32	tools	animals	places	faces	<%values.imagespath%>hammer.jpg	<%values.imagespath%>animal-silhouette-dog2nohead.jpg	<%values.imagespath%>house.jpg	<%values.imagespath%>face-03.jpg	<%values.imagespath%>dark-red-rectangle-risky.jpg	<%values.imagespath%>light-red-triangle-risky.jpg	<%values.imagespath%>dark-blue-circle-safe.jpg	<%values.imagespath%>light-blue-star-safe.jpg
5.0.9.0	100117	22:29:32	1	1	testblock	2	safe1question	44	images/dark-blue-circle-safe.jpg	Why did you choose this machine? Press:              1 = 'To avoid -9'             2 = 'To avoid -1'             3 = 'To gain  2'             4 = 'To gain  10'	2	29	3	59	risky1	safe1	<%values.imagespath%>dark-red-rectangle-risky.jpg	<%values.imagespath%>dark-blue-circle-safe.jpg	right	safe1	15	30	tools	animals	places	faces	<%values.imagespath%>hammer.jpg	<%values.imagespath%>animal-silhouette-dog2nohead.jpg	<%values.imagespath%>house.jpg	<%values.imagespath%>face-03.jpg	<%values.imagespath%>dark-red-rectangle-risky.jpg	<%values.imagespath%>light-red-triangle-risky.jpg	<%values.imagespath%>dark-blue-circle-safe.jpg	<%values.imagespath%>light-blue-star-safe.jpg
5.0.9.0	100117	22:29:32	1	1	testblock	2	largeloss	45	images/face-03.jpg	-9	-9	20	0	0	risky1	safe1	<%values.imagespath%>dark-red-rectangle-risky.jpg	<%values.imagespath%>dark-blue-circle-safe.jpg	right	safe1	15	30	tools	animals	places	faces	<%values.imagespath%>hammer.jpg	<%values.imagespath%>animal-silhouette-dog2nohead.jpg	<%values.imagespath%>house.jpg	<%values.imagespath%>face-03.jpg	<%values.imagespath%>dark-red-rectangle-risky.jpg	<%values.imagespath%>light-red-triangle-risky.jpg	<%values.imagespath%>dark-blue-circle-safe.jpg	<%values.imagespath%>light-blue-star-safe.jpg
5.0.9.0	100117	22:29:32	1	1	testblock	2	risky1question	47	images/dark-red-rectangle-risky.jpg	Why did you choose this machine? Press:              1 = 'To avoid -9'             2 = 'To avoid -1'             3 = 'To gain  2'             4 = 'To gain  10'	-9	20	3	54	safe1	risky1	<%values.imagespath%>dark-blue-circle-safe.jpg	<%values.imagespath%>dark-red-rectangle-risky.jpg	right	risky1	16	4	tools	animals	places	faces	<%values.imagespath%>hammer.jpg	<%values.imagespath%>animal-silhouette-dog2nohead.jpg	<%values.imagespath%>house.jpg	<%values.imagespath%>face-03.jpg	<%values.imagespath%>dark-red-rectangle-risky.jpg	<%values.imagespath%>light-red-triangle-risky.jpg	<%values.imagespath%>dark-blue-circle-safe.jpg	<%values.imagespath%>light-blue-star-safe.jpg
5.0.9.0	100117	22:29:32	1	1	testblock	2	largegain	48	images/hammer.jpg	10	10	30	0	0	safe1	risky1	<%values.imagespath%>dark-blue-circle-safe.jpg	<%values.imagespath%>dark-red-rectangle-risky.jpg	right	risky1	16	4	tools	animals	places	faces	<%values.imagespath%>hammer.jpg	<%values.imagespath%>animal-silhouette-dog2nohead.jpg	<%values.imagespath%>house.jpg	<%values.imagespath%>face-03.jpg	<%values.imagespath%>dark-red-rectangle-risky.jpg	<%values.imagespath%>light-red-triangle-risky.jpg	<%values.imagespath%>dark-blue-circle-safe.jpg	<%values.imagespath%>light-blue-star-safe.jpg
5.0.9.0	100117	22:29:32	1	1	testblock	2	risky2question	50	images/light-red-triangle-risky.jpg	Why did you choose this machine? Press:              1 = 'To avoid -9'             2 = 'To avoid -1'             3 = 'To gain  2'             4 = 'To gain  10'	10	30	3	78	safe2	risky2	<%values.imagespath%>light-blue-star-safe.jpg	<%values.imagespath%>light-red-triangle-risky.jpg	right	risky2	17	191	tools	animals	places	faces	<%values.imagespath%>hammer.jpg	<%values.imagespath%>animal-silhouette-dog2nohead.jpg	<%values.imagespath%>house.jpg	<%values.imagespath%>face-03.jpg	<%values.imagespath%>dark-red-rectangle-risky.jpg	<%values.imagespath%>light-red-triangle-risky.jpg	<%values.imagespath%>dark-blue-circle-safe.jpg	<%values.imagespath%>light-blue-star-safe.jpg
5.0.9.0	100117	22:29:32	1	1	testblock	2	largeloss	51	images/face-03.jpg	-9	-9	21	0	0	safe2	risky2	<%values.imagespath%>light-blue-star-safe.jpg	<%values.imagespath%>light-red-triangle-risky.jpg	right	risky2	17	191	tools	animals	places	faces	<%values.imagespath%>hammer.jpg	<%values.imagespath%>animal-silhouette-dog2nohead.jpg	<%values.imagespath%>house.jpg	<%values.imagespath%>face-03.jpg	<%values.imagespath%>dark-red-rectangle-risky.jpg	<%values.imagespath%>light-red-triangle-risky.jpg	<%values.imagespath%>dark-blue-circle-safe.jpg	<%values.imagespath%>light-blue-star-safe.jpg
5.0.9.0	100117	22:29:32	1	1	testblock	2	safe1question	53	images/dark-blue-circle-safe.jpg	Why did you choose this machine? Press:              1 = 'To avoid -9'             2 = 'To avoid -1'             3 = 'To gain  2'             4 = 'To gain  10'	-9	21	3	85	risky1	safe1	<%values.imagespath%>dark-red-rectangle-risky.jpg	<%values.imagespath%>dark-blue-circle-safe.jpg	right	safe1	18	175	tools	animals	places	faces	<%values.imagespath%>hammer.jpg	<%values.imagespath%>animal-silhouette-dog2nohead.jpg	<%values.imagespath%>house.jpg	<%values.imagespath%>face-03.jpg	<%values.imagespath%>dark-red-rectangle-risky.jpg	<%values.imagespath%>light-red-triangle-risky.jpg	<%values.imagespath%>dark-blue-circle-safe.jpg	<%values.imagespath%>light-blue-star-safe.jpg
5.0.9.0	100117	22:29:32	1	1	testblock	2	smallloss	54	images/house.jpg	2	-1	20	0	0	risky1	safe1	<%values.imagespath%>dark-red-rectangle-risky.jpg	<%values.imagespath%>dark-blue-circle-safe.jpg	right	safe1	18	175	tools	animals	places	faces	<%values.imagespath%>hammer.jpg	<%values.imagespath%>animal-silhouette-dog2nohead.jpg	<%values.imagespath%>house.jpg	<%values.imagespath%>face-03.jpg	<%values.imagespath%>dark-red-rectangle-risky.jpg	<%values.imagespath%>light-red-triangle-risky.jpg	<%values.imagespath%>dark-blue-circle-safe.jpg	<%values.imagespath%>light-blue-star-safe.jpg
5.0.9.0	100117	22:29:32	1	1	testblock	2	risky1question	56	images/dark-red-rectangle-risky.jpg	Why did you choose this machine? Press:              1 = 'To avoid -9'             2 = 'To avoid -1'             3 = 'To gain  2'             4 = 'To gain  10'	-1	20	3	85	safe2	risky1	<%values.imagespath%>light-blue-star-safe.jpg	<%values.imagespath%>dark-red-rectangle-risky.jpg	right	risky1	19	149	tools	animals	places	faces	<%values.imagespath%>hammer.jpg	<%values.imagespath%>animal-silhouette-dog2nohead.jpg	<%values.imagespath%>house.jpg	<%values.imagespath%>face-03.jpg	<%values.imagespath%>dark-red-rectangle-risky.jpg	<%values.imagespath%>light-red-triangle-risky.jpg	<%values.imagespath%>dark-blue-circle-safe.jpg	<%values.imagespath%>light-blue-star-safe.jpg
5.0.9.0	100117	22:29:32	1	1	testblock	2	smallloss	57	images/house.jpg	2	-1	19	0	0	safe2	risky1	<%values.imagespath%>light-blue-star-safe.jpg	<%values.imagespath%>dark-red-rectangle-risky.jpg	right	risky1	19	149	tools	animals	places	faces	<%values.imagespath%>hammer.jpg	<%values.imagespath%>animal-silhouette-dog2nohead.jpg	<%values.imagespath%>house.jpg	<%values.imagespath%>face-03.jpg	<%values.imagespath%>dark-red-rectangle-risky.jpg	<%values.imagespath%>light-red-triangle-risky.jpg	<%values.imagespath%>dark-blue-circle-safe.jpg	<%values.imagespath%>light-blue-star-safe.jpg
5.0.9.0	100117	22:29:32	1	1	testblock	2	risky1question	59	images/dark-red-rectangle-risky.jpg	Why did you choose this machine? Press:              1 = 'To avoid -9'             2 = 'To avoid -1'             3 = 'To gain  2'             4 = 'To gain  10'	-1	19	3	92	safe1	risky1	<%values.imagespath%>dark-blue-circle-safe.jpg	<%values.imagespath%>dark-red-rectangle-risky.jpg	right	risky1	20	165	tools	animals	places	faces	<%values.imagespath%>hammer.jpg	<%values.imagespath%>animal-silhouette-dog2nohead.jpg	<%values.imagespath%>house.jpg	<%values.imagespath%>face-03.jpg	<%values.imagespath%>dark-red-rectangle-risky.jpg	<%values.imagespath%>light-red-triangle-risky.jpg	<%values.imagespath%>dark-blue-circle-safe.jpg	<%values.imagespath%>light-blue-star-safe.jpg
5.0.9.0	100117	22:29:32	1	1	testblock	2	largegain	60	images/hammer.jpg	10	10	29	0	0	safe1	risky1	<%values.imagespath%>dark-blue-circle-safe.jpg	<%values.imagespath%>dark-red-rectangle-risky.jpg	right	risky1	20	165	tools	animals	places	faces	<%values.imagespath%>hammer.jpg	<%values.imagespath%>animal-silhouette-dog2nohead.jpg	<%values.imagespath%>house.jpg	<%values.imagespath%>face-03.jpg	<%values.imagespath%>dark-red-rectangle-risky.jpg	<%values.imagespath%>light-red-triangle-risky.jpg	<%values.imagespath%>dark-blue-circle-safe.jpg	<%values.imagespath%>light-blue-star-safe.jpg
5.0.9.0	100117	22:29:32	1	1	testblock	2	safe1question	62	images/dark-blue-circle-safe.jpg	Why did you choose this machine? Press:              1 = 'To avoid -9'             2 = 'To avoid -1'             3 = 'To gain  2'             4 = 'To gain  10'	10	29	3	140	risky2	safe1	<%values.imagespath%>light-red-triangle-risky.jpg	<%values.imagespath%>dark-blue-circle-safe.jpg	right	safe1	21	140	tools	animals	places	faces	<%values.imagespath%>hammer.jpg	<%values.imagespath%>animal-silhouette-dog2nohead.jpg	<%values.imagespath%>house.jpg	<%values.imagespath%>face-03.jpg	<%values.imagespath%>dark-red-rectangle-risky.jpg	<%values.imagespath%>light-red-triangle-risky.jpg	<%values.imagespath%>dark-blue-circle-safe.jpg	<%values.imagespath%>light-blue-star-safe.jpg
5.0.9.0	100117	22:29:32	1	1	testblock	2	smallgain	63	images/animal-silhouette-dog2nohead.jpg	2	2	31	0	0	risky2	safe1	<%values.imagespath%>light-red-triangle-risky.jpg	<%values.imagespath%>dark-blue-circle-safe.jpg	right	safe1	21	140	tools	animals	places	faces	<%values.imagespath%>hammer.jpg	<%values.imagespath%>animal-silhouette-dog2nohead.jpg	<%values.imagespath%>house.jpg	<%values.imagespath%>face-03.jpg	<%values.imagespath%>dark-red-rectangle-risky.jpg	<%values.imagespath%>light-red-triangle-risky.jpg	<%values.imagespath%>dark-blue-circle-safe.jpg	<%values.imagespath%>light-blue-star-safe.jpg
5.0.9.0	100117	22:29:32	1	1	testblock	2	risky2question	65	images/light-red-triangle-risky.jpg	Why did you choose this machine? Press:              1 = 'To avoid -9'             2 = 'To avoid -1'             3 = 'To gain  2'             4 = 'To gain  10'	2	31	3	139	safe1	risky2	<%values.imagespath%>dark-blue-circle-safe.jpg	<%values.imagespath%>light-red-triangle-risky.jpg	right	risky2	22	98	tools	animals	places	faces	<%values.imagespath%>hammer.jpg	<%values.imagespath%>animal-silhouette-dog2nohead.jpg	<%values.imagespath%>house.jpg	<%values.imagespath%>face-03.jpg	<%values.imagespath%>dark-red-rectangle-risky.jpg	<%values.imagespath%>light-red-triangle-risky.jpg	<%values.imagespath%>dark-blue-circle-safe.jpg	<%values.imagespath%>light-blue-star-safe.jpg
5.0.9.0	100117	22:29:32	1	1	testblock	2	largegain	66	images/hammer.jpg	10	10	41	0	0	safe1	risky2	<%values.imagespath%>dark-blue-circle-safe.jpg	<%values.imagespath%>light-red-triangle-risky.jpg	right	risky2	22	98	tools	animals	places	faces	<%values.imagespath%>hammer.jpg	<%values.imagespath%>animal-silhouette-dog2nohead.jpg	<%values.imagespath%>house.jpg	<%values.imagespath%>face-03.jpg	<%values.imagespath%>dark-red-rectangle-risky.jpg	<%values.imagespath%>light-red-triangle-risky.jpg	<%values.imagespath%>dark-blue-circle-safe.jpg	<%values.imagespath%>light-blue-star-safe.jpg
5.0.9.0	100117	22:29:32	1	1	testblock	2	safe1question	68	images/dark-blue-circle-safe.jpg	Why did you choose this machine? Press:              1 = 'To avoid -9'             2 = 'To avoid -1'             3 = 'To gain  2'             4 = 'To gain  10'	10	41	3	99	risky1	safe1	<%values.imagespath%>dark-red-rectangle-risky.jpg	<%values.imagespath%>dark-blue-circle-safe.jpg	right	safe1	23	104	tools	animals	places	faces	<%values.imagespath%>hammer.jpg	<%values.imagespath%>animal-silhouette-dog2nohead.jpg	<%values.imagespath%>house.jpg	<%values.imagespath%>face-03.jpg	<%values.imagespath%>dark-red-rectangle-risky.jpg	<%values.imagespath%>light-red-triangle-risky.jpg	<%values.imagespath%>dark-blue-circle-safe.jpg	<%values.imagespath%>light-blue-star-safe.jpg
5.0.9.0	100117	22:29:32	1	1	testblock	2	smallloss	69	images/house.jpg	2	-1	40	0	0	risky1	safe1	<%values.imagespath%>dark-red-rectangle-risky.jpg	<%values.imagespath%>dark-blue-circle-safe.jpg	right	safe1	23	104	tools	animals	places	faces	<%values.imagespath%>hammer.jpg	<%values.imagespath%>animal-silhouette-dog2nohead.jpg	<%values.imagespath%>house.jpg	<%values.imagespath%>face-03.jpg	<%values.imagespath%>dark-red-rectangle-risky.jpg	<%values.imagespath%>light-red-triangle-risky.jpg	<%values.imagespath%>dark-blue-circle-safe.jpg	<%values.imagespath%>light-blue-star-safe.jpg
5.0.9.0	100117	22:29:32	1	1	testblock	2	safe2question	71	images/light-blue-star-safe.jpg	Why did you choose this machine? Press:              1 = 'To avoid -9'             2 = 'To avoid -1'             3 = 'To gain  2'             4 = 'To gain  10'	-1	40	3	155	risky1	safe2	<%values.imagespath%>dark-red-rectangle-risky.jpg	<%values.imagespath%>light-blue-star-safe.jpg	right	safe2	24	130	tools	animals	places	faces	<%values.imagespath%>hammer.jpg	<%values.imagespath%>animal-silhouette-dog2nohead.jpg	<%values.imagespath%>house.jpg	<%values.imagespath%>face-03.jpg	<%values.imagespath%>dark-red-rectangle-risky.jpg	<%values.imagespath%>light-red-triangle-risky.jpg	<%values.imagespath%>dark-blue-circle-safe.jpg	<%values.imagespath%>light-blue-star-safe.jpg
5.0.9.0	100117	22:29:32	1	1	testblock	2	smallloss	72	images/house.jpg	2	-1	39	0	0	risky1	safe2	<%values.imagespath%>dark-red-rectangle-risky.jpg	<%values.imagespath%>light-blue-star-safe.jpg	right	safe2	24	130	tools	animals	places	faces	<%values.imagespath%>hammer.jpg	<%values.imagespath%>animal-silhouette-dog2nohead.jpg	<%values.imagespath%>house.jpg	<%values.imagespath%>face-03.jpg	<%values.imagespath%>dark-red-rectangle-risky.jpg	<%values.imagespath%>light-red-triangle-risky.jpg	<%values.imagespath%>dark-blue-circle-safe.jpg	<%values.imagespath%>light-blue-star-safe.jpg
5.0.9.0	100117	22:29:32	1	1	testblock	2	safe2question	74	images/light-blue-star-safe.jpg	Why did you choose this machine? Press:              1 = 'To avoid -9'             2 = 'To avoid -1'             3 = 'To gain  2'             4 = 'To gain  10'	-1	39	3	147	risky2	safe2	<%values.imagespath%>light-red-triangle-risky.jpg	<%values.imagespath%>light-blue-star-safe.jpg	right	safe2	25	112	tools	animals	places	faces	<%values.imagespath%>hammer.jpg	<%values.imagespath%>animal-silhouette-dog2nohead.jpg	<%values.imagespath%>house.jpg	<%values.imagespath%>face-03.jpg	<%values.imagespath%>dark-red-rectangle-risky.jpg	<%values.imagespath%>light-red-triangle-risky.jpg	<%values.imagespath%>dark-blue-circle-safe.jpg	<%values.imagespath%>light-blue-star-safe.jpg
5.0.9.0	100117	22:29:32	1	1	testblock	2	largeloss	75	images/face-03.jpg	-9	-9	30	0	0	risky2	safe2	<%values.imagespath%>light-red-triangle-risky.jpg	<%values.imagespath%>light-blue-star-safe.jpg	right	safe2	25	112	tools	animals	places	faces	<%values.imagespath%>hammer.jpg	<%values.imagespath%>animal-silhouette-dog2nohead.jpg	<%values.imagespath%>house.jpg	<%values.imagespath%>face-03.jpg	<%values.imagespath%>dark-red-rectangle-risky.jpg	<%values.imagespath%>light-red-triangle-risky.jpg	<%values.imagespath%>dark-blue-circle-safe.jpg	<%values.imagespath%>light-blue-star-safe.jpg
5.0.9.0	100117	22:29:32	1	1	testblock	2	attention_check	76	This is halfway through the task.  Press the spacebar when you are ready to continue.	0	-9	30	57	977	risky2	safe2	<%values.imagespath%>light-red-triangle-risky.jpg	<%values.imagespath%>light-blue-star-safe.jpg	right	safe2	25	112	tools	animals	places	faces	<%values.imagespath%>hammer.jpg	<%values.imagespath%>animal-silhouette-dog2nohead.jpg	<%values.imagespath%>house.jpg	<%values.imagespath%>face-03.jpg	<%values.imagespath%>dark-red-rectangle-risky.jpg	<%values.imagespath%>light-red-triangle-risky.jpg	<%values.imagespath%>dark-blue-circle-safe.jpg	<%values.imagespath%>light-blue-star-safe.jpg
5.0.9.0	100117	22:29:32	1	1	testblock	2	risky1question	78	images/dark-red-rectangle-risky.jpg	Why did you choose this machine? Press:              1 = 'To avoid -9'             2 = 'To avoid -1'             3 = 'To gain  2'             4 = 'To gain  10'	-9	30	3	113	safe1	risky1	<%values.imagespath%>dark-blue-circle-safe.jpg	<%values.imagespath%>dark-red-rectangle-risky.jpg	right	risky1	26	599	tools	animals	places	faces	<%values.imagespath%>hammer.jpg	<%values.imagespath%>animal-silhouette-dog2nohead.jpg	<%values.imagespath%>house.jpg	<%values.imagespath%>face-03.jpg	<%values.imagespath%>dark-red-rectangle-risky.jpg	<%values.imagespath%>light-red-triangle-risky.jpg	<%values.imagespath%>dark-blue-circle-safe.jpg	<%values.imagespath%>light-blue-star-safe.jpg
5.0.9.0	100117	22:29:32	1	1	testblock	2	largeloss	79	images/face-03.jpg	-9	-9	21	0	0	safe1	risky1	<%values.imagespath%>dark-blue-circle-safe.jpg	<%values.imagespath%>dark-red-rectangle-risky.jpg	right	risky1	26	599	tools	animals	places	faces	<%values.imagespath%>hammer.jpg	<%values.imagespath%>animal-silhouette-dog2nohead.jpg	<%values.imagespath%>house.jpg	<%values.imagespath%>face-03.jpg	<%values.imagespath%>dark-red-rectangle-risky.jpg	<%values.imagespath%>light-red-triangle-risky.jpg	<%values.imagespath%>dark-blue-circle-safe.jpg	<%values.imagespath%>light-blue-star-safe.jpg
5.0.9.0	100117	22:29:32	1	1	testblock	2	safe2question	81	images/light-blue-star-safe.jpg	Why did you choose this machine? Press:              1 = 'To avoid -9'             2 = 'To avoid -1'             3 = 'To gain  2'             4 = 'To gain  10'	-9	21	3	128	risky2	safe2	<%values.imagespath%>light-red-triangle-risky.jpg	<%values.imagespath%>light-blue-star-safe.jpg	right	safe2	27	144	tools	animals	places	faces	<%values.imagespath%>hammer.jpg	<%values.imagespath%>animal-silhouette-dog2nohead.jpg	<%values.imagespath%>house.jpg	<%values.imagespath%>face-03.jpg	<%values.imagespath%>dark-red-rectangle-risky.jpg	<%values.imagespath%>light-red-triangle-risky.jpg	<%values.imagespath%>dark-blue-circle-safe.jpg	<%values.imagespath%>light-blue-star-safe.jpg
5.0.9.0	100117	22:29:32	1	1	testblock	2	smallloss	82	images/house.jpg	2	-1	20	0	0	risky2	safe2	<%values.imagespath%>light-red-triangle-risky.jpg	<%values.imagespath%>light-blue-star-safe.jpg	right	safe2	27	144	tools	animals	places	faces	<%values.imagespath%>hammer.jpg	<%values.imagespath%>animal-silhouette-dog2nohead.jpg	<%values.imagespath%>house.jpg	<%values.imagespath%>face-03.jpg	<%values.imagespath%>dark-red-rectangle-risky.jpg	<%values.imagespath%>light-red-triangle-risky.jpg	<%values.imagespath%>dark-blue-circle-safe.jpg	<%values.imagespath%>light-blue-star-safe.jpg
5.0.9.0	100117	22:29:32	1	1	testblock	2	risky2question	84	images/light-red-triangle-risky.jpg	Why did you choose this machine? Press:              1 = 'To avoid -9'             2 = 'To avoid -1'             3 = 'To gain  2'             4 = 'To gain  10'	-1	20	3	153	safe1	risky2	<%values.imagespath%>dark-blue-circle-safe.jpg	<%values.imagespath%>light-red-triangle-risky.jpg	right	risky2	28	111	tools	animals	places	faces	<%values.imagespath%>hammer.jpg	<%values.imagespath%>animal-silhouette-dog2nohead.jpg	<%values.imagespath%>house.jpg	<%values.imagespath%>face-03.jpg	<%values.imagespath%>dark-red-rectangle-risky.jpg	<%values.imagespath%>light-red-triangle-risky.jpg	<%values.imagespath%>dark-blue-circle-safe.jpg	<%values.imagespath%>light-blue-star-safe.jpg
5.0.9.0	100117	22:29:32	1	1	testblock	2	smallloss	85	images/house.jpg	2	-1	19	0	0	safe1	risky2	<%values.imagespath%>dark-blue-circle-safe.jpg	<%values.imagespath%>light-red-triangle-risky.jpg	right	risky2	28	111	tools	animals	places	faces	<%values.imagespath%>hammer.jpg	<%values.imagespath%>animal-silhouette-dog2nohead.jpg	<%values.imagespath%>house.jpg	<%values.imagespath%>face-03.jpg	<%values.imagespath%>dark-red-rectangle-risky.jpg	<%values.imagespath%>light-red-triangle-risky.jpg	<%values.imagespath%>dark-blue-circle-safe.jpg	<%values.imagespath%>light-blue-star-safe.jpg
5.0.9.0	100117	22:29:32	1	1	testblock	2	risky2question	87	images/light-red-triangle-risky.jpg	Why did you choose this machine? Press:              1 = 'To avoid -9'             2 = 'To avoid -1'             3 = 'To gain  2'             4 = 'To gain  10'	-1	19	3	195	safe2	risky2	<%values.imagespath%>light-blue-star-safe.jpg	<%values.imagespath%>light-red-triangle-risky.jpg	right	risky2	29	54	tools	animals	places	faces	<%values.imagespath%>hammer.jpg	<%values.imagespath%>animal-silhouette-dog2nohead.jpg	<%values.imagespath%>house.jpg	<%values.imagespath%>face-03.jpg	<%values.imagespath%>dark-red-rectangle-risky.jpg	<%values.imagespath%>light-red-triangle-risky.jpg	<%values.imagespath%>dark-blue-circle-safe.jpg	<%values.imagespath%>light-blue-star-safe.jpg
5.0.9.0	100117	22:29:32	1	1	testblock	2	smallgain	88	images/animal-silhouette-dog2nohead.jpg	2	2	21	0	0	safe2	risky2	<%values.imagespath%>light-blue-star-safe.jpg	<%values.imagespath%>light-red-triangle-risky.jpg	right	risky2	29	54	tools	animals	places	faces	<%values.imagespath%>hammer.jpg	<%values.imagespath%>animal-silhouette-dog2nohead.jpg	<%values.imagespath%>house.jpg	<%values.imagespath%>face-03.jpg	<%values.imagespath%>dark-red-rectangle-risky.jpg	<%values.imagespath%>light-red-triangle-risky.jpg	<%values.imagespath%>dark-blue-circle-safe.jpg	<%values.imagespath%>light-blue-star-safe.jpg
5.0.9.0	100117	22:29:32	1	1	testblock	2	risky2question	90	images/light-red-triangle-risky.jpg	Why did you choose this machine? Press:              1 = 'To avoid -9'             2 = 'To avoid -1'             3 = 'To gain  2'             4 = 'To gain  10'	2	21	3	185	safe1	risky2	<%values.imagespath%>dark-blue-circle-safe.jpg	<%values.imagespath%>light-red-triangle-risky.jpg	right	risky2	30	78	tools	animals	places	faces	<%values.imagespath%>hammer.jpg	<%values.imagespath%>animal-silhouette-dog2nohead.jpg	<%values.imagespath%>house.jpg	<%values.imagespath%>face-03.jpg	<%values.imagespath%>dark-red-rectangle-risky.jpg	<%values.imagespath%>light-red-triangle-risky.jpg	<%values.imagespath%>dark-blue-circle-safe.jpg	<%values.imagespath%>light-blue-star-safe.jpg
5.0.9.0	100117	22:29:32	1	1	testblock	2	largeloss	91	images/face-03.jpg	-9	-9	12	0	0	safe1	risky2	<%values.imagespath%>dark-blue-circle-safe.jpg	<%values.imagespath%>light-red-triangle-risky.jpg	right	risky2	30	78	tools	animals	places	faces	<%values.imagespath%>hammer.jpg	<%values.imagespath%>animal-silhouette-dog2nohead.jpg	<%values.imagespath%>house.jpg	<%values.imagespath%>face-03.jpg	<%values.imagespath%>dark-red-rectangle-risky.jpg	<%values.imagespath%>light-red-triangle-risky.jpg	<%values.imagespath%>dark-blue-circle-safe.jpg	<%values.imagespath%>light-blue-star-safe.jpg
5.0.9.0	100117	22:29:32	1	1	testblock	2	safe1question	93	images/dark-blue-circle-safe.jpg	Why did you choose this machine? Press:              1 = 'To avoid -9'             2 = 'To avoid -1'             3 = 'To gain  2'             4 = 'To gain  10'	-9	12	3	159	risky1	safe1	<%values.imagespath%>dark-red-rectangle-risky.jpg	<%values.imagespath%>dark-blue-circle-safe.jpg	right	safe1	31	101	tools	animals	places	faces	<%values.imagespath%>hammer.jpg	<%values.imagespath%>animal-silhouette-dog2nohead.jpg	<%values.imagespath%>house.jpg	<%values.imagespath%>face-03.jpg	<%values.imagespath%>dark-red-rectangle-risky.jpg	<%values.imagespath%>light-red-triangle-risky.jpg	<%values.imagespath%>dark-blue-circle-safe.jpg	<%values.imagespath%>light-blue-star-safe.jpg
5.0.9.0	100117	22:29:32	1	1	testblock	2	smallloss	94	images/house.jpg	2	-1	11	0	0	risky1	safe1	<%values.imagespath%>dark-red-rectangle-risky.jpg	<%values.imagespath%>dark-blue-circle-safe.jpg	right	safe1	31	101	tools	animals	places	faces	<%values.imagespath%>hammer.jpg	<%values.imagespath%>animal-silhouette-dog2nohead.jpg	<%values.imagespath%>house.jpg	<%values.imagespath%>face-03.jpg	<%values.imagespath%>dark-red-rectangle-risky.jpg	<%values.imagespath%>light-red-triangle-risky.jpg	<%values.imagespath%>dark-blue-circle-safe.jpg	<%values.imagespath%>light-blue-star-safe.jpg
5.0.9.0	100117	22:29:32	1	1	testblock	2	risky1question	96	images/dark-red-rectangle-risky.jpg	Why did you choose this machine? Press:              1 = 'To avoid -9'             2 = 'To avoid -1'             3 = 'To gain  2'             4 = 'To gain  10'	-1	11	3	158	safe1	risky1	<%values.imagespath%>dark-blue-circle-safe.jpg	<%values.imagespath%>dark-red-rectangle-risky.jpg	right	risky1	32	101	tools	animals	places	faces	<%values.imagespath%>hammer.jpg	<%values.imagespath%>animal-silhouette-dog2nohead.jpg	<%values.imagespath%>house.jpg	<%values.imagespath%>face-03.jpg	<%values.imagespath%>dark-red-rectangle-risky.jpg	<%values.imagespath%>light-red-triangle-risky.jpg	<%values.imagespath%>dark-blue-circle-safe.jpg	<%values.imagespath%>light-blue-star-safe.jpg
5.0.9.0	100117	22:29:32	1	1	testblock	2	largegain	97	images/hammer.jpg	10	10	21	0	0	safe1	risky1	<%values.imagespath%>dark-blue-circle-safe.jpg	<%values.imagespath%>dark-red-rectangle-risky.jpg	right	risky1	32	101	tools	animals	places	faces	<%values.imagespath%>hammer.jpg	<%values.imagespath%>animal-silhouette-dog2nohead.jpg	<%values.imagespath%>house.jpg	<%values.imagespath%>face-03.jpg	<%values.imagespath%>dark-red-rectangle-risky.jpg	<%values.imagespath%>light-red-triangle-risky.jpg	<%values.imagespath%>dark-blue-circle-safe.jpg	<%values.imagespath%>light-blue-star-safe.jpg
5.0.9.0	100117	22:29:32	1	1	testblock	2	risky1question	99	images/dark-red-rectangle-risky.jpg	Why did you choose this machine? Press:              1 = 'To avoid -9'             2 = 'To avoid -1'             3 = 'To gain  2'             4 = 'To gain  10'	10	21	3	190	safe2	risky1	<%values.imagespath%>light-blue-star-safe.jpg	<%values.imagespath%>dark-red-rectangle-risky.jpg	right	risky1	33	108	tools	animals	places	faces	<%values.imagespath%>hammer.jpg	<%values.imagespath%>animal-silhouette-dog2nohead.jpg	<%values.imagespath%>house.jpg	<%values.imagespath%>face-03.jpg	<%values.imagespath%>dark-red-rectangle-risky.jpg	<%values.imagespath%>light-red-triangle-risky.jpg	<%values.imagespath%>dark-blue-circle-safe.jpg	<%values.imagespath%>light-blue-star-safe.jpg
5.0.9.0	100117	22:29:32	1	1	testblock	2	largegain	100	images/hammer.jpg	10	10	31	0	0	safe2	risky1	<%values.imagespath%>light-blue-star-safe.jpg	<%values.imagespath%>dark-red-rectangle-risky.jpg	right	risky1	33	108	tools	animals	places	faces	<%values.imagespath%>hammer.jpg	<%values.imagespath%>animal-silhouette-dog2nohead.jpg	<%values.imagespath%>house.jpg	<%values.imagespath%>face-03.jpg	<%values.imagespath%>dark-red-rectangle-risky.jpg	<%values.imagespath%>light-red-triangle-risky.jpg	<%values.imagespath%>dark-blue-circle-safe.jpg	<%values.imagespath%>light-blue-star-safe.jpg
5.0.9.0	100117	22:29:32	1	1	testblock	2	risky2question	102	images/light-red-triangle-risky.jpg	Why did you choose this machine? Press:              1 = 'To avoid -9'             2 = 'To avoid -1'             3 = 'To gain  2'             4 = 'To gain  10'	10	31	3	172	safe2	risky2	<%values.imagespath%>light-blue-star-safe.jpg	<%values.imagespath%>light-red-triangle-risky.jpg	right	risky2	34	91	tools	animals	places	faces	<%values.imagespath%>hammer.jpg	<%values.imagespath%>animal-silhouette-dog2nohead.jpg	<%values.imagespath%>house.jpg	<%values.imagespath%>face-03.jpg	<%values.imagespath%>dark-red-rectangle-risky.jpg	<%values.imagespath%>light-red-triangle-risky.jpg	<%values.imagespath%>dark-blue-circle-safe.jpg	<%values.imagespath%>light-blue-star-safe.jpg
5.0.9.0	100117	22:29:32	1	1	testblock	2	smallgain	103	images/animal-silhouette-dog2nohead.jpg	2	2	33	0	0	safe2	risky2	<%values.imagespath%>light-blue-star-safe.jpg	<%values.imagespath%>light-red-triangle-risky.jpg	right	risky2	34	91	tools	animals	places	faces	<%values.imagespath%>hammer.jpg	<%values.imagespath%>animal-silhouette-dog2nohead.jpg	<%values.imagespath%>house.jpg	<%values.imagespath%>face-03.jpg	<%values.imagespath%>dark-red-rectangle-risky.jpg	<%values.imagespath%>light-red-triangle-risky.jpg	<%values.imagespath%>dark-blue-circle-safe.jpg	<%values.imagespath%>light-blue-star-safe.jpg
5.0.9.0	100117	22:29:32	1	1	testblock	2	safe2question	105	images/light-blue-star-safe.jpg	Why did you choose this machine? Press:              1 = 'To avoid -9'             2 = 'To avoid -1'             3 = 'To gain  2'             4 = 'To gain  10'	2	33	3	162	risky1	safe2	<%values.imagespath%>dark-red-rectangle-risky.jpg	<%values.imagespath%>light-blue-star-safe.jpg	right	safe2	35	105	tools	animals	places	faces	<%values.imagespath%>hammer.jpg	<%values.imagespath%>animal-silhouette-dog2nohead.jpg	<%values.imagespath%>house.jpg	<%values.imagespath%>face-03.jpg	<%values.imagespath%>dark-red-rectangle-risky.jpg	<%values.imagespath%>light-red-triangle-risky.jpg	<%values.imagespath%>dark-blue-circle-safe.jpg	<%values.imagespath%>light-blue-star-safe.jpg
5.0.9.0	100117	22:29:32	1	1	testblock	2	smallgain	106	images/animal-silhouette-dog2nohead.jpg	2	2	35	0	0	risky1	safe2	<%values.imagespath%>dark-red-rectangle-risky.jpg	<%values.imagespath%>light-blue-star-safe.jpg	right	safe2	35	105	tools	animals	places	faces	<%values.imagespath%>hammer.jpg	<%values.imagespath%>animal-silhouette-dog2nohead.jpg	<%values.imagespath%>house.jpg	<%values.imagespath%>face-03.jpg	<%values.imagespath%>dark-red-rectangle-risky.jpg	<%values.imagespath%>light-red-triangle-risky.jpg	<%values.imagespath%>dark-blue-circle-safe.jpg	<%values.imagespath%>light-blue-star-safe.jpg
5.0.9.0	100117	22:29:32	1	1	testblock	2	risky2question	108	images/light-red-triangle-risky.jpg	Why did you choose this machine? Press:              1 = 'To avoid -9'             2 = 'To avoid -1'             3 = 'To gain  2'             4 = 'To gain  10'	2	35	3	144	safe1	risky2	<%values.imagespath%>dark-blue-circle-safe.jpg	<%values.imagespath%>light-red-triangle-risky.jpg	right	risky2	36	136	tools	animals	places	faces	<%values.imagespath%>hammer.jpg	<%values.imagespath%>animal-silhouette-dog2nohead.jpg	<%values.imagespath%>house.jpg	<%values.imagespath%>face-03.jpg	<%values.imagespath%>dark-red-rectangle-risky.jpg	<%values.imagespath%>light-red-triangle-risky.jpg	<%values.imagespath%>dark-blue-circle-safe.jpg	<%values.imagespath%>light-blue-star-safe.jpg
5.0.9.0	100117	22:29:32	1	1	testblock	2	largegain	109	images/hammer.jpg	10	10	45	0	0	safe1	risky2	<%values.imagespath%>dark-blue-circle-safe.jpg	<%values.imagespath%>light-red-triangle-risky.jpg	right	risky2	36	136	tools	animals	places	faces	<%values.imagespath%>hammer.jpg	<%values.imagespath%>animal-silhouette-dog2nohead.jpg	<%values.imagespath%>house.jpg	<%values.imagespath%>face-03.jpg	<%values.imagespath%>dark-red-rectangle-risky.jpg	<%values.imagespath%>light-red-triangle-risky.jpg	<%values.imagespath%>dark-blue-circle-safe.jpg	<%values.imagespath%>light-blue-star-safe.jpg
5.0.9.0	100117	22:29:32	1	1	testblock	2	risky1question	111	images/dark-red-rectangle-risky.jpg	Why did you choose this machine? Press:              1 = 'To avoid -9'             2 = 'To avoid -1'             3 = 'To gain  2'             4 = 'To gain  10'	10	45	3	195	safe1	risky1	<%values.imagespath%>dark-blue-circle-safe.jpg	<%values.imagespath%>dark-red-rectangle-risky.jpg	right	risky1	37	109	tools	animals	places	faces	<%values.imagespath%>hammer.jpg	<%values.imagespath%>animal-silhouette-dog2nohead.jpg	<%values.imagespath%>house.jpg	<%values.imagespath%>face-03.jpg	<%values.imagespath%>dark-red-rectangle-risky.jpg	<%values.imagespath%>light-red-triangle-risky.jpg	<%values.imagespath%>dark-blue-circle-safe.jpg	<%values.imagespath%>light-blue-star-safe.jpg
5.0.9.0	100117	22:29:32	1	1	testblock	2	smallloss	112	images/house.jpg	2	-1	44	0	0	safe1	risky1	<%values.imagespath%>dark-blue-circle-safe.jpg	<%values.imagespath%>dark-red-rectangle-risky.jpg	right	risky1	37	109	tools	animals	places	faces	<%values.imagespath%>hammer.jpg	<%values.imagespath%>animal-silhouette-dog2nohead.jpg	<%values.imagespath%>house.jpg	<%values.imagespath%>face-03.jpg	<%values.imagespath%>dark-red-rectangle-risky.jpg	<%values.imagespath%>light-red-triangle-risky.jpg	<%values.imagespath%>dark-blue-circle-safe.jpg	<%values.imagespath%>light-blue-star-safe.jpg
5.0.9.0	100117	22:29:32	1	1	testblock	2	safe2question	114	images/light-blue-star-safe.jpg	Why did you choose this machine? Press:              1 = 'To avoid -9'             2 = 'To avoid -1'             3 = 'To gain  2'             4 = 'To gain  10'	-1	44	3	290	risky1	safe2	<%values.imagespath%>dark-red-rectangle-risky.jpg	<%values.imagespath%>light-blue-star-safe.jpg	right	safe2	38	86	tools	animals	places	faces	<%values.imagespath%>hammer.jpg	<%values.imagespath%>animal-silhouette-dog2nohead.jpg	<%values.imagespath%>house.jpg	<%values.imagespath%>face-03.jpg	<%values.imagespath%>dark-red-rectangle-risky.jpg	<%values.imagespath%>light-red-triangle-risky.jpg	<%values.imagespath%>dark-blue-circle-safe.jpg	<%values.imagespath%>light-blue-star-safe.jpg
5.0.9.0	100117	22:29:32	1	1	testblock	2	largeloss	115	images/face-03.jpg	-9	-9	35	0	0	risky1	safe2	<%values.imagespath%>dark-red-rectangle-risky.jpg	<%values.imagespath%>light-blue-star-safe.jpg	right	safe2	38	86	tools	animals	places	faces	<%values.imagespath%>hammer.jpg	<%values.imagespath%>animal-silhouette-dog2nohead.jpg	<%values.imagespath%>house.jpg	<%values.imagespath%>face-03.jpg	<%values.imagespath%>dark-red-rectangle-risky.jpg	<%values.imagespath%>light-red-triangle-risky.jpg	<%values.imagespath%>dark-blue-circle-safe.jpg	<%values.imagespath%>light-blue-star-safe.jpg
5.0.9.0	100117	22:29:32	1	1	testblock	2	safe1question	117	images/dark-blue-circle-safe.jpg	Why did you choose this machine? Press:              1 = 'To avoid -9'             2 = 'To avoid -1'             3 = 'To gain  2'             4 = 'To gain  10'	-9	35	3	211	risky1	safe1	<%values.imagespath%>dark-red-rectangle-risky.jpg	<%values.imagespath%>dark-blue-circle-safe.jpg	right	safe1	39	97	tools	animals	places	faces	<%values.imagespath%>hammer.jpg	<%values.imagespath%>animal-silhouette-dog2nohead.jpg	<%values.imagespath%>house.jpg	<%values.imagespath%>face-03.jpg	<%values.imagespath%>dark-red-rectangle-risky.jpg	<%values.imagespath%>light-red-triangle-risky.jpg	<%values.imagespath%>dark-blue-circle-safe.jpg	<%values.imagespath%>light-blue-star-safe.jpg
5.0.9.0	100117	22:29:32	1	1	testblock	2	smallgain	118	images/animal-silhouette-dog2nohead.jpg	2	2	37	0	0	risky1	safe1	<%values.imagespath%>dark-red-rectangle-risky.jpg	<%values.imagespath%>dark-blue-circle-safe.jpg	right	safe1	39	97	tools	animals	places	faces	<%values.imagespath%>hammer.jpg	<%values.imagespath%>animal-silhouette-dog2nohead.jpg	<%values.imagespath%>house.jpg	<%values.imagespath%>face-03.jpg	<%values.imagespath%>dark-red-rectangle-risky.jpg	<%values.imagespath%>light-red-triangle-risky.jpg	<%values.imagespath%>dark-blue-circle-safe.jpg	<%values.imagespath%>light-blue-star-safe.jpg
5.0.9.0	100117	22:29:32	1	1	testblock	2	risky1question	120	images/dark-red-rectangle-risky.jpg	Why did you choose this machine? Press:              1 = 'To avoid -9'             2 = 'To avoid -1'             3 = 'To gain  2'             4 = 'To gain  10'	2	37	3	170	safe1	risky1	<%values.imagespath%>dark-blue-circle-safe.jpg	<%values.imagespath%>dark-red-rectangle-risky.jpg	right	risky1	40	103	tools	animals	places	faces	<%values.imagespath%>hammer.jpg	<%values.imagespath%>animal-silhouette-dog2nohead.jpg	<%values.imagespath%>house.jpg	<%values.imagespath%>face-03.jpg	<%values.imagespath%>dark-red-rectangle-risky.jpg	<%values.imagespath%>light-red-triangle-risky.jpg	<%values.imagespath%>dark-blue-circle-safe.jpg	<%values.imagespath%>light-blue-star-safe.jpg
5.0.9.0	100117	22:29:32	1	1	testblock	2	largeloss	121	images/face-03.jpg	-9	-9	28	0	0	safe1	risky1	<%values.imagespath%>dark-blue-circle-safe.jpg	<%values.imagespath%>dark-red-rectangle-risky.jpg	right	risky1	40	103	tools	animals	places	faces	<%values.imagespath%>hammer.jpg	<%values.imagespath%>animal-silhouette-dog2nohead.jpg	<%values.imagespath%>house.jpg	<%values.imagespath%>face-03.jpg	<%values.imagespath%>dark-red-rectangle-risky.jpg	<%values.imagespath%>light-red-triangle-risky.jpg	<%values.imagespath%>dark-blue-circle-safe.jpg	<%values.imagespath%>light-blue-star-safe.jpg
5.0.9.0	100117	22:29:32	1	1	testblock	2	risky2question	123	images/light-red-triangle-risky.jpg	Why did you choose this machine? Press:              1 = 'To avoid -9'             2 = 'To avoid -1'             3 = 'To gain  2'             4 = 'To gain  10'	-9	28	3	10	safe2	risky2	<%values.imagespath%>light-blue-star-safe.jpg	<%values.imagespath%>light-red-triangle-risky.jpg	right	risky2	41	62	tools	animals	places	faces	<%values.imagespath%>hammer.jpg	<%values.imagespath%>animal-silhouette-dog2nohead.jpg	<%values.imagespath%>house.jpg	<%values.imagespath%>face-03.jpg	<%values.imagespath%>dark-red-rectangle-risky.jpg	<%values.imagespath%>light-red-triangle-risky.jpg	<%values.imagespath%>dark-blue-circle-safe.jpg	<%values.imagespath%>light-blue-star-safe.jpg
5.0.9.0	100117	22:29:32	1	1	testblock	2	largeloss	124	images/face-03.jpg	-9	-9	19	0	0	safe2	risky2	<%values.imagespath%>light-blue-star-safe.jpg	<%values.imagespath%>light-red-triangle-risky.jpg	right	risky2	41	62	tools	animals	places	faces	<%values.imagespath%>hammer.jpg	<%values.imagespath%>animal-silhouette-dog2nohead.jpg	<%values.imagespath%>house.jpg	<%values.imagespath%>face-03.jpg	<%values.imagespath%>dark-red-rectangle-risky.jpg	<%values.imagespath%>light-red-triangle-risky.jpg	<%values.imagespath%>dark-blue-circle-safe.jpg	<%values.imagespath%>light-blue-star-safe.jpg
5.0.9.0	100117	22:29:32	1	1	testblock	2	risky1question	126	images/dark-red-rectangle-risky.jpg	Why did you choose this machine? Press:              1 = 'To avoid -9'             2 = 'To avoid -1'             3 = 'To gain  2'             4 = 'To gain  10'	-9	19	3	194	safe2	risky1	<%values.imagespath%>light-blue-star-safe.jpg	<%values.imagespath%>dark-red-rectangle-risky.jpg	right	risky1	42	204	tools	animals	places	faces	<%values.imagespath%>hammer.jpg	<%values.imagespath%>animal-silhouette-dog2nohead.jpg	<%values.imagespath%>house.jpg	<%values.imagespath%>face-03.jpg	<%values.imagespath%>dark-red-rectangle-risky.jpg	<%values.imagespath%>light-red-triangle-risky.jpg	<%values.imagespath%>dark-blue-circle-safe.jpg	<%values.imagespath%>light-blue-star-safe.jpg
5.0.9.0	100117	22:29:32	1	1	testblock	2	smallgain	127	images/animal-silhouette-dog2nohead.jpg	2	2	21	0	0	safe2	risky1	<%values.imagespath%>light-blue-star-safe.jpg	<%values.imagespath%>dark-red-rectangle-risky.jpg	right	risky1	42	204	tools	animals	places	faces	<%values.imagespath%>hammer.jpg	<%values.imagespath%>animal-silhouette-dog2nohead.jpg	<%values.imagespath%>house.jpg	<%values.imagespath%>face-03.jpg	<%values.imagespath%>dark-red-rectangle-risky.jpg	<%values.imagespath%>light-red-triangle-risky.jpg	<%values.imagespath%>dark-blue-circle-safe.jpg	<%values.imagespath%>light-blue-star-safe.jpg
5.0.9.0	100117	22:29:32	1	1	testblock	2	safe2question	129	images/light-blue-star-safe.jpg	Why did you choose this machine? Press:              1 = 'To avoid -9'             2 = 'To avoid -1'             3 = 'To gain  2'             4 = 'To gain  10'	2	21	3	193	risky1	safe2	<%values.imagespath%>dark-red-rectangle-risky.jpg	<%values.imagespath%>light-blue-star-safe.jpg	right	safe2	43	111	tools	animals	places	faces	<%values.imagespath%>hammer.jpg	<%values.imagespath%>animal-silhouette-dog2nohead.jpg	<%values.imagespath%>house.jpg	<%values.imagespath%>face-03.jpg	<%values.imagespath%>dark-red-rectangle-risky.jpg	<%values.imagespath%>light-red-triangle-risky.jpg	<%values.imagespath%>dark-blue-circle-safe.jpg	<%values.imagespath%>light-blue-star-safe.jpg
5.0.9.0	100117	22:29:32	1	1	testblock	2	smallgain	130	images/animal-silhouette-dog2nohead.jpg	2	2	23	0	0	risky1	safe2	<%values.imagespath%>dark-red-rectangle-risky.jpg	<%values.imagespath%>light-blue-star-safe.jpg	right	safe2	43	111	tools	animals	places	faces	<%values.imagespath%>hammer.jpg	<%values.imagespath%>animal-silhouette-dog2nohead.jpg	<%values.imagespath%>house.jpg	<%values.imagespath%>face-03.jpg	<%values.imagespath%>dark-red-rectangle-risky.jpg	<%values.imagespath%>light-red-triangle-risky.jpg	<%values.imagespath%>dark-blue-circle-safe.jpg	<%values.imagespath%>light-blue-star-safe.jpg
5.0.9.0	100117	22:29:32	1	1	testblock	2	safe1question	132	images/dark-blue-circle-safe.jpg	Why did you choose this machine? Press:              1 = 'To avoid -9'             2 = 'To avoid -1'             3 = 'To gain  2'             4 = 'To gain  10'	2	23	3	381	risky1	safe1	<%values.imagespath%>dark-red-rectangle-risky.jpg	<%values.imagespath%>dark-blue-circle-safe.jpg	right	safe1	44	124	tools	animals	places	faces	<%values.imagespath%>hammer.jpg	<%values.imagespath%>animal-silhouette-dog2nohead.jpg	<%values.imagespath%>house.jpg	<%values.imagespath%>face-03.jpg	<%values.imagespath%>dark-red-rectangle-risky.jpg	<%values.imagespath%>light-red-triangle-risky.jpg	<%values.imagespath%>dark-blue-circle-safe.jpg	<%values.imagespath%>light-blue-star-safe.jpg
5.0.9.0	100117	22:29:32	1	1	testblock	2	largegain	133	images/hammer.jpg	10	10	33	0	0	risky1	safe1	<%values.imagespath%>dark-red-rectangle-risky.jpg	<%values.imagespath%>dark-blue-circle-safe.jpg	right	safe1	44	124	tools	animals	places	faces	<%values.imagespath%>hammer.jpg	<%values.imagespath%>animal-silhouette-dog2nohead.jpg	<%values.imagespath%>house.jpg	<%values.imagespath%>face-03.jpg	<%values.imagespath%>dark-red-rectangle-risky.jpg	<%values.imagespath%>light-red-triangle-risky.jpg	<%values.imagespath%>dark-blue-circle-safe.jpg	<%values.imagespath%>light-blue-star-safe.jpg
5.0.9.0	100117	22:29:32	1	1	testblock	2	safe2question	135	images/light-blue-star-safe.jpg	Why did you choose this machine? Press:              1 = 'To avoid -9'             2 = 'To avoid -1'             3 = 'To gain  2'             4 = 'To gain  10'	10	33	4	3890	risky1	safe2	<%values.imagespath%>dark-red-rectangle-risky.jpg	<%values.imagespath%>light-blue-star-safe.jpg	right	safe2	45	121	tools	animals	places	faces	<%values.imagespath%>hammer.jpg	<%values.imagespath%>animal-silhouette-dog2nohead.jpg	<%values.imagespath%>house.jpg	<%values.imagespath%>face-03.jpg	<%values.imagespath%>dark-red-rectangle-risky.jpg	<%values.imagespath%>light-red-triangle-risky.jpg	<%values.imagespath%>dark-blue-circle-safe.jpg	<%values.imagespath%>light-blue-star-safe.jpg
5.0.9.0	100117	22:29:32	1	1	testblock	2	largegain	136	images/hammer.jpg	10	10	43	0	0	risky1	safe2	<%values.imagespath%>dark-red-rectangle-risky.jpg	<%values.imagespath%>light-blue-star-safe.jpg	right	safe2	45	121	tools	animals	places	faces	<%values.imagespath%>hammer.jpg	<%values.imagespath%>animal-silhouette-dog2nohead.jpg	<%values.imagespath%>house.jpg	<%values.imagespath%>face-03.jpg	<%values.imagespath%>dark-red-rectangle-risky.jpg	<%values.imagespath%>light-red-triangle-risky.jpg	<%values.imagespath%>dark-blue-circle-safe.jpg	<%values.imagespath%>light-blue-star-safe.jpg
5.0.9.0	100117	22:29:32	1	1	testblock	2	safe1question	138	images/dark-blue-circle-safe.jpg	Why did you choose this machine? Press:              1 = 'To avoid -9'             2 = 'To avoid -1'             3 = 'To gain  2'             4 = 'To gain  10'	10	43	3	151	risky2	safe1	<%values.imagespath%>light-red-triangle-risky.jpg	<%values.imagespath%>dark-blue-circle-safe.jpg	right	safe1	46	626	tools	animals	places	faces	<%values.imagespath%>hammer.jpg	<%values.imagespath%>animal-silhouette-dog2nohead.jpg	<%values.imagespath%>house.jpg	<%values.imagespath%>face-03.jpg	<%values.imagespath%>dark-red-rectangle-risky.jpg	<%values.imagespath%>light-red-triangle-risky.jpg	<%values.imagespath%>dark-blue-circle-safe.jpg	<%values.imagespath%>light-blue-star-safe.jpg
5.0.9.0	100117	22:29:32	1	1	testblock	2	smallloss	139	images/house.jpg	2	-1	42	0	0	risky2	safe1	<%values.imagespath%>light-red-triangle-risky.jpg	<%values.imagespath%>dark-blue-circle-safe.jpg	right	safe1	46	626	tools	animals	places	faces	<%values.imagespath%>hammer.jpg	<%values.imagespath%>animal-silhouette-dog2nohead.jpg	<%values.imagespath%>house.jpg	<%values.imagespath%>face-03.jpg	<%values.imagespath%>dark-red-rectangle-risky.jpg	<%values.imagespath%>light-red-triangle-risky.jpg	<%values.imagespath%>dark-blue-circle-safe.jpg	<%values.imagespath%>light-blue-star-safe.jpg
5.0.9.0	100117	22:29:32	1	1	testblock	2	safe1question	141	images/dark-blue-circle-safe.jpg	Why did you choose this machine? Press:              1 = 'To avoid -9'             2 = 'To avoid -1'             3 = 'To gain  2'             4 = 'To gain  10'	-1	42	3	102	risky1	safe1	<%values.imagespath%>dark-red-rectangle-risky.jpg	<%values.imagespath%>dark-blue-circle-safe.jpg	right	safe1	47	324	tools	animals	places	faces	<%values.imagespath%>hammer.jpg	<%values.imagespath%>animal-silhouette-dog2nohead.jpg	<%values.imagespath%>house.jpg	<%values.imagespath%>face-03.jpg	<%values.imagespath%>dark-red-rectangle-risky.jpg	<%values.imagespath%>light-red-triangle-risky.jpg	<%values.imagespath%>dark-blue-circle-safe.jpg	<%values.imagespath%>light-blue-star-safe.jpg
5.0.9.0	100117	22:29:32	1	1	testblock	2	smallgain	142	images/animal-silhouette-dog2nohead.jpg	2	2	44	0	0	risky1	safe1	<%values.imagespath%>dark-red-rectangle-risky.jpg	<%values.imagespath%>dark-blue-circle-safe.jpg	right	safe1	47	324	tools	animals	places	faces	<%values.imagespath%>hammer.jpg	<%values.imagespath%>animal-silhouette-dog2nohead.jpg	<%values.imagespath%>house.jpg	<%values.imagespath%>face-03.jpg	<%values.imagespath%>dark-red-rectangle-risky.jpg	<%values.imagespath%>light-red-triangle-risky.jpg	<%values.imagespath%>dark-blue-circle-safe.jpg	<%values.imagespath%>light-blue-star-safe.jpg
5.0.9.0	100117	22:29:32	1	1	testblock	2	risky2question	144	images/light-red-triangle-risky.jpg	Why did you choose this machine? Press:              1 = 'To avoid -9'             2 = 'To avoid -1'             3 = 'To gain  2'             4 = 'To gain  10'	2	44	3	129	safe1	risky2	<%values.imagespath%>dark-blue-circle-safe.jpg	<%values.imagespath%>light-red-triangle-risky.jpg	right	risky2	48	20	tools	animals	places	faces	<%values.imagespath%>hammer.jpg	<%values.imagespath%>animal-silhouette-dog2nohead.jpg	<%values.imagespath%>house.jpg	<%values.imagespath%>face-03.jpg	<%values.imagespath%>dark-red-rectangle-risky.jpg	<%values.imagespath%>light-red-triangle-risky.jpg	<%values.imagespath%>dark-blue-circle-safe.jpg	<%values.imagespath%>light-blue-star-safe.jpg
5.0.9.0	100117	22:29:32	1	1	testblock	2	largegain	145	images/hammer.jpg	10	10	54	0	0	safe1	risky2	<%values.imagespath%>dark-blue-circle-safe.jpg	<%values.imagespath%>light-red-triangle-risky.jpg	right	risky2	48	20	tools	animals	places	faces	<%values.imagespath%>hammer.jpg	<%values.imagespath%>animal-silhouette-dog2nohead.jpg	<%values.imagespath%>house.jpg	<%values.imagespath%>face-03.jpg	<%values.imagespath%>dark-red-rectangle-risky.jpg	<%values.imagespath%>light-red-triangle-risky.jpg	<%values.imagespath%>dark-blue-circle-safe.jpg	<%values.imagespath%>light-blue-star-safe.jpg
5.0.9.0	100117	22:29:32	1	1	testblock	2	risky2question	147	images/light-red-triangle-risky.jpg	Why did you choose this machine? Press:              1 = 'To avoid -9'             2 = 'To avoid -1'             3 = 'To gain  2'             4 = 'To gain  10'	10	54	3	101	safe2	risky2	<%values.imagespath%>light-blue-star-safe.jpg	<%values.imagespath%>light-red-triangle-risky.jpg	right	risky2	49	24	tools	animals	places	faces	<%values.imagespath%>hammer.jpg	<%values.imagespath%>animal-silhouette-dog2nohead.jpg	<%values.imagespath%>house.jpg	<%values.imagespath%>face-03.jpg	<%values.imagespath%>dark-red-rectangle-risky.jpg	<%values.imagespath%>light-red-triangle-risky.jpg	<%values.imagespath%>dark-blue-circle-safe.jpg	<%values.imagespath%>light-blue-star-safe.jpg
5.0.9.0	100117	22:29:32	1	1	testblock	2	largegain	148	images/hammer.jpg	10	10	64	0	0	safe2	risky2	<%values.imagespath%>light-blue-star-safe.jpg	<%values.imagespath%>light-red-triangle-risky.jpg	right	risky2	49	24	tools	animals	places	faces	<%values.imagespath%>hammer.jpg	<%values.imagespath%>animal-silhouette-dog2nohead.jpg	<%values.imagespath%>house.jpg	<%values.imagespath%>face-03.jpg	<%values.imagespath%>dark-red-rectangle-risky.jpg	<%values.imagespath%>light-red-triangle-risky.jpg	<%values.imagespath%>dark-blue-circle-safe.jpg	<%values.imagespath%>light-blue-star-safe.jpg
5.0.9.0	100117	22:29:32	1	1	testblock	2	risky1question	150	images/dark-red-rectangle-risky.jpg	Why did you choose this machine? Press:              1 = 'To avoid -9'             2 = 'To avoid -1'             3 = 'To gain  2'             4 = 'To gain  10'	10	64	3	274	safe2	risky1	<%values.imagespath%>light-blue-star-safe.jpg	<%values.imagespath%>dark-red-rectangle-risky.jpg	right	risky1	50	476	tools	animals	places	faces	<%values.imagespath%>hammer.jpg	<%values.imagespath%>animal-silhouette-dog2nohead.jpg	<%values.imagespath%>house.jpg	<%values.imagespath%>face-03.jpg	<%values.imagespath%>dark-red-rectangle-risky.jpg	<%values.imagespath%>light-red-triangle-risky.jpg	<%values.imagespath%>dark-blue-circle-safe.jpg	<%values.imagespath%>light-blue-star-safe.jpg
5.0.9.0	100117	22:29:32	1	1	testblock	2	largegain	151	images/hammer.jpg	10	10	74	0	0	safe2	risky1	<%values.imagespath%>light-blue-star-safe.jpg	<%values.imagespath%>dark-red-rectangle-risky.jpg	right	risky1	50	476	tools	animals	places	faces	<%values.imagespath%>hammer.jpg	<%values.imagespath%>animal-silhouette-dog2nohead.jpg	<%values.imagespath%>house.jpg	<%values.imagespath%>face-03.jpg	<%values.imagespath%>dark-red-rectangle-risky.jpg	<%values.imagespath%>light-red-triangle-risky.jpg	<%values.imagespath%>dark-blue-circle-safe.jpg	<%values.imagespath%>light-blue-star-safe.jpg
5.0.9.0	100117	22:29:32	1	1	attentionQuiz	3	attentionQuizLargeGain	1	What value did this stamp map too? Please type in the value.               A. '-9'             B. '-1'             C. '2'             D. '10'	images/hammer.jpg	10	74	10	6293	safe2	risky1	<%values.imagespath%>light-blue-star-safe.jpg	<%values.imagespath%>dark-red-rectangle-risky.jpg	right	risky1	50	476	tools	animals	places	faces	<%values.imagespath%>hammer.jpg	<%values.imagespath%>animal-silhouette-dog2nohead.jpg	<%values.imagespath%>house.jpg	<%values.imagespath%>face-03.jpg	<%values.imagespath%>dark-red-rectangle-risky.jpg	<%values.imagespath%>light-red-triangle-risky.jpg	<%values.imagespath%>dark-blue-circle-safe.jpg	<%values.imagespath%>light-blue-star-safe.jpg
5.0.9.0	100117	22:29:32	1	1	attentionQuiz	3	attentionQuizSmallGain	2	What value did this stamp map too? Please type in the value.               A. '-9'             B. '-1'             C. '2'             D. '10'	images/animal-silhouette-dog2nohead.jpg	10	74	2	2877	safe2	risky1	<%values.imagespath%>light-blue-star-safe.jpg	<%values.imagespath%>dark-red-rectangle-risky.jpg	right	risky1	50	476	tools	animals	places	faces	<%values.imagespath%>hammer.jpg	<%values.imagespath%>animal-silhouette-dog2nohead.jpg	<%values.imagespath%>house.jpg	<%values.imagespath%>face-03.jpg	<%values.imagespath%>dark-red-rectangle-risky.jpg	<%values.imagespath%>light-red-triangle-risky.jpg	<%values.imagespath%>dark-blue-circle-safe.jpg	<%values.imagespath%>light-blue-star-safe.jpg
5.0.9.0	100117	22:29:32	1	1	attentionQuiz	3	attentionQuizLargeLoss	3	What value did this stamp map too? Please type in the value.               A. '-9'             B. '-1'             C. '2'             D. '10'	images/face-03.jpg	10	74	-1	1840	safe2	risky1	<%values.imagespath%>light-blue-star-safe.jpg	<%values.imagespath%>dark-red-rectangle-risky.jpg	right	risky1	50	476	tools	animals	places	faces	<%values.imagespath%>hammer.jpg	<%values.imagespath%>animal-silhouette-dog2nohead.jpg	<%values.imagespath%>house.jpg	<%values.imagespath%>face-03.jpg	<%values.imagespath%>dark-red-rectangle-risky.jpg	<%values.imagespath%>light-red-triangle-risky.jpg	<%values.imagespath%>dark-blue-circle-safe.jpg	<%values.imagespath%>light-blue-star-safe.jpg
5.0.9.0	100117	22:29:32	1	1	attentionQuiz	3	attentionQuizSmallLoss	4	What value did this stamp map too? Please type in the value.               A. '-9'             B. '-1'             C. '2'             D. '10'	images/house.jpg	10	74	-9	1969	safe2	risky1	<%values.imagespath%>light-blue-star-safe.jpg	<%values.imagespath%>dark-red-rectangle-risky.jpg	right	risky1	50	476	tools	animals	places	faces	<%values.imagespath%>hammer.jpg	<%values.imagespath%>animal-silhouette-dog2nohead.jpg	<%values.imagespath%>house.jpg	<%values.imagespath%>face-03.jpg	<%values.imagespath%>dark-red-rectangle-risky.jpg	<%values.imagespath%>light-red-triangle-risky.jpg	<%values.imagespath%>dark-blue-circle-safe.jpg	<%values.imagespath%>light-blue-star-safe.jpg
5.0.9.0	100117	22:29:32	1	1	thankYouAndPaymentBlock	4	thankYouAndPaymentTrial	1	Thank you for participating in this study. You have earned 111 cents bonus pay.	0	10	74	57	2798	safe2	risky1	<%values.imagespath%>light-blue-star-safe.jpg	<%values.imagespath%>dark-red-rectangle-risky.jpg	right	risky1	50	476	tools	animals	places	faces	<%values.imagespath%>hammer.jpg	<%values.imagespath%>animal-silhouette-dog2nohead.jpg	<%values.imagespath%>house.jpg	<%values.imagespath%>face-03.jpg	<%values.imagespath%>dark-red-rectangle-risky.jpg	<%values.imagespath%>light-red-triangle-risky.jpg	<%values.imagespath%>dark-blue-circle-safe.jpg	<%values.imagespath%>light-blue-star-safe.jpg
