"build","date","time","subject","group","blockcode","blocknum","trialcode","trialnum","stimulusitem1","stimulusitem2","values.pointsthisturn","values.newtotalscore","response","latency","values.leftoption","values.rightoption","values.leftpic","values.rightpic","values.selecteddirn","values.selectedoption","values.turnnum","values.choicert","values.largegainpic_category","values.smallgainpic_category","values.smalllosspic_category","values.largelosspic_category","values.largegainpic","values.smallgainpic","values.smalllosspic","values.largelosspic","values.risky1pic","values.risky2pic","values.safe1pic","values.safe2pic"
"5.0.10.0","110917","16:58:12","5015","26","initial_instructions","1","instructions_main","1","slide01.jpg","0","0","0","57","5450","NA","NA","NA","NA","NA","NA","0","NA","faces","tools","animals","places","<%values.imagespath%>face-03.jpg","<%values.imagespath%>hammer.jpg","<%values.imagespath%>animal-silhouette-dog2nohead.jpg","<%values.imagespath%>house.jpg","<%values.imagespath%>dark-blue-circle-risky.jpg","<%values.imagespath%>light-blue-star-risky.jpg","<%values.imagespath%>dark-red-rectangle-safe.jpg","<%values.imagespath%>light-red-triangle-safe.jpg"
"5.0.10.0","110917","16:58:12","5015","26","initial_instructions","1","instructions_main","2","slide02.jpg","0","0","0","57","11593","NA","NA","NA","NA","NA","NA","0","NA","faces","tools","animals","places","<%values.imagespath%>face-03.jpg","<%values.imagespath%>hammer.jpg","<%values.imagespath%>animal-silhouette-dog2nohead.jpg","<%values.imagespath%>house.jpg","<%values.imagespath%>dark-blue-circle-risky.jpg","<%values.imagespath%>light-blue-star-risky.jpg","<%values.imagespath%>dark-red-rectangle-safe.jpg","<%values.imagespath%>light-red-triangle-safe.jpg"
"5.0.10.0","110917","16:58:12","5015","26","initial_instructions","1","instructions_main","3","slide03.jpg","0","0","0","57","13308","NA","NA","NA","NA","NA","NA","0","NA","faces","tools","animals","places","<%values.imagespath%>face-03.jpg","<%values.imagespath%>hammer.jpg","<%values.imagespath%>animal-silhouette-dog2nohead.jpg","<%values.imagespath%>house.jpg","<%values.imagespath%>dark-blue-circle-risky.jpg","<%values.imagespath%>light-blue-star-risky.jpg","<%values.imagespath%>dark-red-rectangle-safe.jpg","<%values.imagespath%>light-red-triangle-safe.jpg"
"5.0.10.0","110917","16:58:12","5015","26","initial_instructions","1","instructions_main","4","slide06.jpg","0","0","0","57","15283","NA","NA","NA","NA","NA","NA","0","NA","faces","tools","animals","places","<%values.imagespath%>face-03.jpg","<%values.imagespath%>hammer.jpg","<%values.imagespath%>animal-silhouette-dog2nohead.jpg","<%values.imagespath%>house.jpg","<%values.imagespath%>dark-blue-circle-risky.jpg","<%values.imagespath%>light-blue-star-risky.jpg","<%values.imagespath%>dark-red-rectangle-safe.jpg","<%values.imagespath%>light-red-triangle-safe.jpg"
"5.0.10.0","110917","16:58:12","5015","26","initial_instructions","1","instructions_main","5","slide07.jpg","0","0","0","57","15083","NA","NA","NA","NA","NA","NA","0","NA","faces","tools","animals","places","<%values.imagespath%>face-03.jpg","<%values.imagespath%>hammer.jpg","<%values.imagespath%>animal-silhouette-dog2nohead.jpg","<%values.imagespath%>house.jpg","<%values.imagespath%>dark-blue-circle-risky.jpg","<%values.imagespath%>light-blue-star-risky.jpg","<%values.imagespath%>dark-red-rectangle-safe.jpg","<%values.imagespath%>light-red-triangle-safe.jpg"
"5.0.10.0","110917","16:58:12","5015","26","initial_instructions","1","instructions_dists","6","Each machine can give you ANY OF THE 4 STAMPS with their corresponding points. However, the blue machines are MORE LIKLEY to give you stamps that let you GAIN MANY points (faces, +10 points) but may also give you stamps where you LOSE MANY points (places, -9 points).    On the other hand, the red machines are MORE LIKELY to give you stamps where you GAIN LESS points (tools, +2 points) but also stamps where you LOSE LESS points (animals, -1 points).  To remind you of this while playing, you will see numbers above each machine. The numbers in BOLD tell you the amount of points that machine is MORE LIKELY to give you...             Press Spacebar to continue","group-redSafe-blueRisky.jpg","0","0","57","21559","NA","NA","NA","NA","NA","NA","0","NA","faces","tools","animals","places","<%values.imagespath%>face-03.jpg","<%values.imagespath%>hammer.jpg","<%values.imagespath%>animal-silhouette-dog2nohead.jpg","<%values.imagespath%>house.jpg","<%values.imagespath%>dark-blue-circle-risky.jpg","<%values.imagespath%>light-blue-star-risky.jpg","<%values.imagespath%>dark-red-rectangle-safe.jpg","<%values.imagespath%>light-red-triangle-safe.jpg"
"5.0.10.0","110917","16:58:12","5015","26","initial_instructions","1","instructions_dists","7","Note that, over the long run all of the machines will give you the SAME amount of points. The only difference is in which types of stamps are more likely to appear, ones that give you large gains and losses, vs smaller gains and losses. Don't forget that each machine can give you ALL 4 types of stamps!                     Press Spacebar to continue","group-redSafe-blueRisky.jpg","0","0","57","8438","NA","NA","NA","NA","NA","NA","0","NA","faces","tools","animals","places","<%values.imagespath%>face-03.jpg","<%values.imagespath%>hammer.jpg","<%values.imagespath%>animal-silhouette-dog2nohead.jpg","<%values.imagespath%>house.jpg","<%values.imagespath%>dark-blue-circle-risky.jpg","<%values.imagespath%>light-blue-star-risky.jpg","<%values.imagespath%>dark-red-rectangle-safe.jpg","<%values.imagespath%>light-red-triangle-safe.jpg"
"5.0.10.0","110917","16:58:12","5015","26","initial_instructions","1","instructionslides_selectright","8","slide09.jpg","0","0","0","36","25853","NA","NA","NA","NA","NA","NA","0","NA","faces","tools","animals","places","<%values.imagespath%>face-03.jpg","<%values.imagespath%>hammer.jpg","<%values.imagespath%>animal-silhouette-dog2nohead.jpg","<%values.imagespath%>house.jpg","<%values.imagespath%>dark-blue-circle-risky.jpg","<%values.imagespath%>light-blue-star-risky.jpg","<%values.imagespath%>dark-red-rectangle-safe.jpg","<%values.imagespath%>light-red-triangle-safe.jpg"
"5.0.10.0","110917","16:58:12","5015","26","initial_instructions","1","instructionslides_selectleft","9","slide10.jpg","0","0","0","33","4355","NA","NA","NA","NA","NA","NA","0","NA","faces","tools","animals","places","<%values.imagespath%>face-03.jpg","<%values.imagespath%>hammer.jpg","<%values.imagespath%>animal-silhouette-dog2nohead.jpg","<%values.imagespath%>house.jpg","<%values.imagespath%>dark-blue-circle-risky.jpg","<%values.imagespath%>light-blue-star-risky.jpg","<%values.imagespath%>dark-red-rectangle-safe.jpg","<%values.imagespath%>light-red-triangle-safe.jpg"
"5.0.10.0","110917","16:58:12","5015","26","initial_instructions","1","instructionSlidesLastSection","10","slide14.jpg","0","0","0","57","14228","NA","NA","NA","NA","NA","NA","0","NA","faces","tools","animals","places","<%values.imagespath%>face-03.jpg","<%values.imagespath%>hammer.jpg","<%values.imagespath%>animal-silhouette-dog2nohead.jpg","<%values.imagespath%>house.jpg","<%values.imagespath%>dark-blue-circle-risky.jpg","<%values.imagespath%>light-blue-star-risky.jpg","<%values.imagespath%>dark-red-rectangle-safe.jpg","<%values.imagespath%>light-red-triangle-safe.jpg"
"5.0.10.0","110917","16:58:12","5015","26","initial_instructions","1","instructionSlidesLastSection","11","slide15.jpg","0","0","0","57","23550","NA","NA","NA","NA","NA","NA","0","NA","faces","tools","animals","places","<%values.imagespath%>face-03.jpg","<%values.imagespath%>hammer.jpg","<%values.imagespath%>animal-silhouette-dog2nohead.jpg","<%values.imagespath%>house.jpg","<%values.imagespath%>dark-blue-circle-risky.jpg","<%values.imagespath%>light-blue-star-risky.jpg","<%values.imagespath%>dark-red-rectangle-safe.jpg","<%values.imagespath%>light-red-triangle-safe.jpg"
"5.0.10.0","110917","16:58:12","5015","26","initial_instructions","1","instructionSlidesLastSection","12","slide16.jpg","0","0","0","57","5294","NA","NA","NA","NA","NA","NA","0","NA","faces","tools","animals","places","<%values.imagespath%>face-03.jpg","<%values.imagespath%>hammer.jpg","<%values.imagespath%>animal-silhouette-dog2nohead.jpg","<%values.imagespath%>house.jpg","<%values.imagespath%>dark-blue-circle-risky.jpg","<%values.imagespath%>light-blue-star-risky.jpg","<%values.imagespath%>dark-red-rectangle-safe.jpg","<%values.imagespath%>light-red-triangle-safe.jpg"
"5.0.10.0","110917","16:58:12","5015","26","testblock","2","safe1question","2","dark-red-rectangle-safe.jpg","Why did you choose this machine? Press:              1 = 'To avoid -9'             2 = 'To avoid -1'             3 = 'To gain  2'             4 = 'To gain  10'","0","0","2","16095","safe1","risky2","<%values.imagespath%>dark-red-rectangle-safe.jpg","<%values.imagespath%>light-blue-star-risky.jpg","left","safe1","1","6741","faces","tools","animals","places","<%values.imagespath%>face-03.jpg","<%values.imagespath%>hammer.jpg","<%values.imagespath%>animal-silhouette-dog2nohead.jpg","<%values.imagespath%>house.jpg","<%values.imagespath%>dark-blue-circle-risky.jpg","<%values.imagespath%>light-blue-star-risky.jpg","<%values.imagespath%>dark-red-rectangle-safe.jpg","<%values.imagespath%>light-red-triangle-safe.jpg"
"5.0.10.0","110917","16:58:12","5015","26","testblock","2","smallgain","3","hammer.jpg","2","2","2","0","2500","safe1","risky2","<%values.imagespath%>dark-red-rectangle-safe.jpg","<%values.imagespath%>light-blue-star-risky.jpg","left","safe1","1","6741","faces","tools","animals","places","<%values.imagespath%>face-03.jpg","<%values.imagespath%>hammer.jpg","<%values.imagespath%>animal-silhouette-dog2nohead.jpg","<%values.imagespath%>house.jpg","<%values.imagespath%>dark-blue-circle-risky.jpg","<%values.imagespath%>light-blue-star-risky.jpg","<%values.imagespath%>dark-red-rectangle-safe.jpg","<%values.imagespath%>light-red-triangle-safe.jpg"
"5.0.10.0","110917","16:58:12","5015","26","testblock","2","safe2question","5","light-red-triangle-safe.jpg","Why did you choose this machine? Press:              1 = 'To avoid -9'             2 = 'To avoid -1'             3 = 'To gain  2'             4 = 'To gain  10'","2","2","5","4496","risky2","safe2","<%values.imagespath%>light-blue-star-risky.jpg","<%values.imagespath%>light-red-triangle-safe.jpg","right","safe2","2","4992","faces","tools","animals","places","<%values.imagespath%>face-03.jpg","<%values.imagespath%>hammer.jpg","<%values.imagespath%>animal-silhouette-dog2nohead.jpg","<%values.imagespath%>house.jpg","<%values.imagespath%>dark-blue-circle-risky.jpg","<%values.imagespath%>light-blue-star-risky.jpg","<%values.imagespath%>dark-red-rectangle-safe.jpg","<%values.imagespath%>light-red-triangle-safe.jpg"
"5.0.10.0","110917","16:58:12","5015","26","testblock","2","smallloss","6","animal-silhouette-dog2nohead.jpg","2","-1","1","0","2500","risky2","safe2","<%values.imagespath%>light-blue-star-risky.jpg","<%values.imagespath%>light-red-triangle-safe.jpg","right","safe2","2","4992","faces","tools","animals","places","<%values.imagespath%>face-03.jpg","<%values.imagespath%>hammer.jpg","<%values.imagespath%>animal-silhouette-dog2nohead.jpg","<%values.imagespath%>house.jpg","<%values.imagespath%>dark-blue-circle-risky.jpg","<%values.imagespath%>light-blue-star-risky.jpg","<%values.imagespath%>dark-red-rectangle-safe.jpg","<%values.imagespath%>light-red-triangle-safe.jpg"
"5.0.10.0","110917","16:58:12","5015","26","testblock","2","risky2question","8","light-blue-star-risky.jpg","Why did you choose this machine? Press:              1 = 'To avoid -9'             2 = 'To avoid -1'             3 = 'To gain  2'             4 = 'To gain  10'","-1","1","5","1909","safe2","risky2","<%values.imagespath%>light-red-triangle-safe.jpg","<%values.imagespath%>light-blue-star-risky.jpg","right","risky2","3","5655","faces","tools","animals","places","<%values.imagespath%>face-03.jpg","<%values.imagespath%>hammer.jpg","<%values.imagespath%>animal-silhouette-dog2nohead.jpg","<%values.imagespath%>house.jpg","<%values.imagespath%>dark-blue-circle-risky.jpg","<%values.imagespath%>light-blue-star-risky.jpg","<%values.imagespath%>dark-red-rectangle-safe.jpg","<%values.imagespath%>light-red-triangle-safe.jpg"
"5.0.10.0","110917","16:58:12","5015","26","testblock","2","largeloss","9","house.jpg","-9","-9","-8","0","2500","safe2","risky2","<%values.imagespath%>light-red-triangle-safe.jpg","<%values.imagespath%>light-blue-star-risky.jpg","right","risky2","3","5655","faces","tools","animals","places","<%values.imagespath%>face-03.jpg","<%values.imagespath%>hammer.jpg","<%values.imagespath%>animal-silhouette-dog2nohead.jpg","<%values.imagespath%>house.jpg","<%values.imagespath%>dark-blue-circle-risky.jpg","<%values.imagespath%>light-blue-star-risky.jpg","<%values.imagespath%>dark-red-rectangle-safe.jpg","<%values.imagespath%>light-red-triangle-safe.jpg"
"5.0.10.0","110917","16:58:12","5015","26","testblock","2","risky2question","11","light-blue-star-risky.jpg","Why did you choose this machine? Press:              1 = 'To avoid -9'             2 = 'To avoid -1'             3 = 'To gain  2'             4 = 'To gain  10'","-9","-8","5","1394","safe1","risky2","<%values.imagespath%>dark-red-rectangle-safe.jpg","<%values.imagespath%>light-blue-star-risky.jpg","right","risky2","4","6010","faces","tools","animals","places","<%values.imagespath%>face-03.jpg","<%values.imagespath%>hammer.jpg","<%values.imagespath%>animal-silhouette-dog2nohead.jpg","<%values.imagespath%>house.jpg","<%values.imagespath%>dark-blue-circle-risky.jpg","<%values.imagespath%>light-blue-star-risky.jpg","<%values.imagespath%>dark-red-rectangle-safe.jpg","<%values.imagespath%>light-red-triangle-safe.jpg"
"5.0.10.0","110917","16:58:12","5015","26","testblock","2","largegain","12","face-03.jpg","10","10","2","0","2500","safe1","risky2","<%values.imagespath%>dark-red-rectangle-safe.jpg","<%values.imagespath%>light-blue-star-risky.jpg","right","risky2","4","6010","faces","tools","animals","places","<%values.imagespath%>face-03.jpg","<%values.imagespath%>hammer.jpg","<%values.imagespath%>animal-silhouette-dog2nohead.jpg","<%values.imagespath%>house.jpg","<%values.imagespath%>dark-blue-circle-risky.jpg","<%values.imagespath%>light-blue-star-risky.jpg","<%values.imagespath%>dark-red-rectangle-safe.jpg","<%values.imagespath%>light-red-triangle-safe.jpg"
"5.0.10.0","110917","16:58:12","5015","26","testblock","2","risky1question","14","dark-blue-circle-risky.jpg","Why did you choose this machine? Press:              1 = 'To avoid -9'             2 = 'To avoid -1'             3 = 'To gain  2'             4 = 'To gain  10'","10","2","5","2332","risky2","safe1","<%values.imagespath%>light-blue-star-risky.jpg","<%values.imagespath%>dark-red-rectangle-safe.jpg","left","risky2","5","4987","faces","tools","animals","places","<%values.imagespath%>face-03.jpg","<%values.imagespath%>hammer.jpg","<%values.imagespath%>animal-silhouette-dog2nohead.jpg","<%values.imagespath%>house.jpg","<%values.imagespath%>dark-blue-circle-risky.jpg","<%values.imagespath%>light-blue-star-risky.jpg","<%values.imagespath%>dark-red-rectangle-safe.jpg","<%values.imagespath%>light-red-triangle-safe.jpg"
"5.0.10.0","110917","16:58:12","5015","26","testblock","2","largegain","15","face-03.jpg","10","10","12","0","2500","risky2","safe1","<%values.imagespath%>light-blue-star-risky.jpg","<%values.imagespath%>dark-red-rectangle-safe.jpg","left","risky2","5","4987","faces","tools","animals","places","<%values.imagespath%>face-03.jpg","<%values.imagespath%>hammer.jpg","<%values.imagespath%>animal-silhouette-dog2nohead.jpg","<%values.imagespath%>house.jpg","<%values.imagespath%>dark-blue-circle-risky.jpg","<%values.imagespath%>light-blue-star-risky.jpg","<%values.imagespath%>dark-red-rectangle-safe.jpg","<%values.imagespath%>light-red-triangle-safe.jpg"
"5.0.10.0","110917","16:58:12","5015","26","testblock","2","risky2question","17","light-blue-star-risky.jpg","Why did you choose this machine? Press:              1 = 'To avoid -9'             2 = 'To avoid -1'             3 = 'To gain  2'             4 = 'To gain  10'","10","12","5","2183","safe2","risky2","<%values.imagespath%>light-red-triangle-safe.jpg","<%values.imagespath%>light-blue-star-risky.jpg","right","risky2","6","6823","faces","tools","animals","places","<%values.imagespath%>face-03.jpg","<%values.imagespath%>hammer.jpg","<%values.imagespath%>animal-silhouette-dog2nohead.jpg","<%values.imagespath%>house.jpg","<%values.imagespath%>dark-blue-circle-risky.jpg","<%values.imagespath%>light-blue-star-risky.jpg","<%values.imagespath%>dark-red-rectangle-safe.jpg","<%values.imagespath%>light-red-triangle-safe.jpg"
"5.0.10.0","110917","16:58:12","5015","26","testblock","2","smallloss","18","animal-silhouette-dog2nohead.jpg","2","-1","11","0","2500","safe2","risky2","<%values.imagespath%>light-red-triangle-safe.jpg","<%values.imagespath%>light-blue-star-risky.jpg","right","risky2","6","6823","faces","tools","animals","places","<%values.imagespath%>face-03.jpg","<%values.imagespath%>hammer.jpg","<%values.imagespath%>animal-silhouette-dog2nohead.jpg","<%values.imagespath%>house.jpg","<%values.imagespath%>dark-blue-circle-risky.jpg","<%values.imagespath%>light-blue-star-risky.jpg","<%values.imagespath%>dark-red-rectangle-safe.jpg","<%values.imagespath%>light-red-triangle-safe.jpg"
"5.0.10.0","110917","16:58:12","5015","26","testblock","2","safe1question","20","dark-red-rectangle-safe.jpg","Why did you choose this machine? Press:              1 = 'To avoid -9'             2 = 'To avoid -1'             3 = 'To gain  2'             4 = 'To gain  10'","-1","11","2","2128","safe1","risky1","<%values.imagespath%>dark-red-rectangle-safe.jpg","<%values.imagespath%>dark-blue-circle-risky.jpg","left","safe1","7","3400","faces","tools","animals","places","<%values.imagespath%>face-03.jpg","<%values.imagespath%>hammer.jpg","<%values.imagespath%>animal-silhouette-dog2nohead.jpg","<%values.imagespath%>house.jpg","<%values.imagespath%>dark-blue-circle-risky.jpg","<%values.imagespath%>light-blue-star-risky.jpg","<%values.imagespath%>dark-red-rectangle-safe.jpg","<%values.imagespath%>light-red-triangle-safe.jpg"
"5.0.10.0","110917","16:58:12","5015","26","testblock","2","smallgain","21","hammer.jpg","2","2","13","0","2500","safe1","risky1","<%values.imagespath%>dark-red-rectangle-safe.jpg","<%values.imagespath%>dark-blue-circle-risky.jpg","left","safe1","7","3400","faces","tools","animals","places","<%values.imagespath%>face-03.jpg","<%values.imagespath%>hammer.jpg","<%values.imagespath%>animal-silhouette-dog2nohead.jpg","<%values.imagespath%>house.jpg","<%values.imagespath%>dark-blue-circle-risky.jpg","<%values.imagespath%>light-blue-star-risky.jpg","<%values.imagespath%>dark-red-rectangle-safe.jpg","<%values.imagespath%>light-red-triangle-safe.jpg"
"5.0.10.0","110917","16:58:12","5015","26","testblock","2","safe2question","23","light-red-triangle-safe.jpg","Why did you choose this machine? Press:              1 = 'To avoid -9'             2 = 'To avoid -1'             3 = 'To gain  2'             4 = 'To gain  10'","2","13","2","1469","risky1","safe2","<%values.imagespath%>dark-blue-circle-risky.jpg","<%values.imagespath%>light-red-triangle-safe.jpg","right","safe2","8","2981","faces","tools","animals","places","<%values.imagespath%>face-03.jpg","<%values.imagespath%>hammer.jpg","<%values.imagespath%>animal-silhouette-dog2nohead.jpg","<%values.imagespath%>house.jpg","<%values.imagespath%>dark-blue-circle-risky.jpg","<%values.imagespath%>light-blue-star-risky.jpg","<%values.imagespath%>dark-red-rectangle-safe.jpg","<%values.imagespath%>light-red-triangle-safe.jpg"
"5.0.10.0","110917","16:58:12","5015","26","testblock","2","largegain","24","face-03.jpg","10","10","23","0","2500","risky1","safe2","<%values.imagespath%>dark-blue-circle-risky.jpg","<%values.imagespath%>light-red-triangle-safe.jpg","right","safe2","8","2981","faces","tools","animals","places","<%values.imagespath%>face-03.jpg","<%values.imagespath%>hammer.jpg","<%values.imagespath%>animal-silhouette-dog2nohead.jpg","<%values.imagespath%>house.jpg","<%values.imagespath%>dark-blue-circle-risky.jpg","<%values.imagespath%>light-blue-star-risky.jpg","<%values.imagespath%>dark-red-rectangle-safe.jpg","<%values.imagespath%>light-red-triangle-safe.jpg"
"5.0.10.0","110917","16:58:12","5015","26","testblock","2","risky1question","26","dark-blue-circle-risky.jpg","Why did you choose this machine? Press:              1 = 'To avoid -9'             2 = 'To avoid -1'             3 = 'To gain  2'             4 = 'To gain  10'","10","23","5","2589","safe2","risky1","<%values.imagespath%>light-red-triangle-safe.jpg","<%values.imagespath%>dark-blue-circle-risky.jpg","right","safe2","9","1947","faces","tools","animals","places","<%values.imagespath%>face-03.jpg","<%values.imagespath%>hammer.jpg","<%values.imagespath%>animal-silhouette-dog2nohead.jpg","<%values.imagespath%>house.jpg","<%values.imagespath%>dark-blue-circle-risky.jpg","<%values.imagespath%>light-blue-star-risky.jpg","<%values.imagespath%>dark-red-rectangle-safe.jpg","<%values.imagespath%>light-red-triangle-safe.jpg"
"5.0.10.0","110917","16:58:12","5015","26","testblock","2","largeloss","27","house.jpg","-9","-9","14","0","2500","safe2","risky1","<%values.imagespath%>light-red-triangle-safe.jpg","<%values.imagespath%>dark-blue-circle-risky.jpg","right","safe2","9","1947","faces","tools","animals","places","<%values.imagespath%>face-03.jpg","<%values.imagespath%>hammer.jpg","<%values.imagespath%>animal-silhouette-dog2nohead.jpg","<%values.imagespath%>house.jpg","<%values.imagespath%>dark-blue-circle-risky.jpg","<%values.imagespath%>light-blue-star-risky.jpg","<%values.imagespath%>dark-red-rectangle-safe.jpg","<%values.imagespath%>light-red-triangle-safe.jpg"
"5.0.10.0","110917","16:58:12","5015","26","testblock","2","safe1question","29","dark-red-rectangle-safe.jpg","Why did you choose this machine? Press:              1 = 'To avoid -9'             2 = 'To avoid -1'             3 = 'To gain  2'             4 = 'To gain  10'","-9","14","2","2256","safe1","risky1","<%values.imagespath%>dark-red-rectangle-safe.jpg","<%values.imagespath%>dark-blue-circle-risky.jpg","left","safe1","10","3734","faces","tools","animals","places","<%values.imagespath%>face-03.jpg","<%values.imagespath%>hammer.jpg","<%values.imagespath%>animal-silhouette-dog2nohead.jpg","<%values.imagespath%>house.jpg","<%values.imagespath%>dark-blue-circle-risky.jpg","<%values.imagespath%>light-blue-star-risky.jpg","<%values.imagespath%>dark-red-rectangle-safe.jpg","<%values.imagespath%>light-red-triangle-safe.jpg"
"5.0.10.0","110917","16:58:12","5015","26","testblock","2","largeloss","30","house.jpg","-9","-9","5","0","2500","safe1","risky1","<%values.imagespath%>dark-red-rectangle-safe.jpg","<%values.imagespath%>dark-blue-circle-risky.jpg","left","safe1","10","3734","faces","tools","animals","places","<%values.imagespath%>face-03.jpg","<%values.imagespath%>hammer.jpg","<%values.imagespath%>animal-silhouette-dog2nohead.jpg","<%values.imagespath%>house.jpg","<%values.imagespath%>dark-blue-circle-risky.jpg","<%values.imagespath%>light-blue-star-risky.jpg","<%values.imagespath%>dark-red-rectangle-safe.jpg","<%values.imagespath%>light-red-triangle-safe.jpg"
"5.0.10.0","110917","16:58:12","5015","26","testblock","2","safe1question","32","dark-red-rectangle-safe.jpg","Why did you choose this machine? Press:              1 = 'To avoid -9'             2 = 'To avoid -1'             3 = 'To gain  2'             4 = 'To gain  10'","-9","5","2","2210","risky1","safe1","<%values.imagespath%>dark-blue-circle-risky.jpg","<%values.imagespath%>dark-red-rectangle-safe.jpg","right","safe1","11","3927","faces","tools","animals","places","<%values.imagespath%>face-03.jpg","<%values.imagespath%>hammer.jpg","<%values.imagespath%>animal-silhouette-dog2nohead.jpg","<%values.imagespath%>house.jpg","<%values.imagespath%>dark-blue-circle-risky.jpg","<%values.imagespath%>light-blue-star-risky.jpg","<%values.imagespath%>dark-red-rectangle-safe.jpg","<%values.imagespath%>light-red-triangle-safe.jpg"
"5.0.10.0","110917","16:58:12","5015","26","testblock","2","smallloss","33","animal-silhouette-dog2nohead.jpg","2","-1","4","0","2500","risky1","safe1","<%values.imagespath%>dark-blue-circle-risky.jpg","<%values.imagespath%>dark-red-rectangle-safe.jpg","right","safe1","11","3927","faces","tools","animals","places","<%values.imagespath%>face-03.jpg","<%values.imagespath%>hammer.jpg","<%values.imagespath%>animal-silhouette-dog2nohead.jpg","<%values.imagespath%>house.jpg","<%values.imagespath%>dark-blue-circle-risky.jpg","<%values.imagespath%>light-blue-star-risky.jpg","<%values.imagespath%>dark-red-rectangle-safe.jpg","<%values.imagespath%>light-red-triangle-safe.jpg"
"5.0.10.0","110917","16:58:12","5015","26","testblock","2","risky1question","35","dark-blue-circle-risky.jpg","Why did you choose this machine? Press:              1 = 'To avoid -9'             2 = 'To avoid -1'             3 = 'To gain  2'             4 = 'To gain  10'","-1","4","5","1879","risky2","safe1","<%values.imagespath%>light-blue-star-risky.jpg","<%values.imagespath%>dark-red-rectangle-safe.jpg","left","risky2","12","2083","faces","tools","animals","places","<%values.imagespath%>face-03.jpg","<%values.imagespath%>hammer.jpg","<%values.imagespath%>animal-silhouette-dog2nohead.jpg","<%values.imagespath%>house.jpg","<%values.imagespath%>dark-blue-circle-risky.jpg","<%values.imagespath%>light-blue-star-risky.jpg","<%values.imagespath%>dark-red-rectangle-safe.jpg","<%values.imagespath%>light-red-triangle-safe.jpg"
"5.0.10.0","110917","16:58:12","5015","26","testblock","2","largegain","36","face-03.jpg","10","10","14","0","2500","risky2","safe1","<%values.imagespath%>light-blue-star-risky.jpg","<%values.imagespath%>dark-red-rectangle-safe.jpg","left","risky2","12","2083","faces","tools","animals","places","<%values.imagespath%>face-03.jpg","<%values.imagespath%>hammer.jpg","<%values.imagespath%>animal-silhouette-dog2nohead.jpg","<%values.imagespath%>house.jpg","<%values.imagespath%>dark-blue-circle-risky.jpg","<%values.imagespath%>light-blue-star-risky.jpg","<%values.imagespath%>dark-red-rectangle-safe.jpg","<%values.imagespath%>light-red-triangle-safe.jpg"
"5.0.10.0","110917","16:58:12","5015","26","testblock","2","risky2question","38","light-blue-star-risky.jpg","Why did you choose this machine? Press:              1 = 'To avoid -9'             2 = 'To avoid -1'             3 = 'To gain  2'             4 = 'To gain  10'","10","14","5","1553","safe2","risky2","<%values.imagespath%>light-red-triangle-safe.jpg","<%values.imagespath%>light-blue-star-risky.jpg","right","risky2","13","2477","faces","tools","animals","places","<%values.imagespath%>face-03.jpg","<%values.imagespath%>hammer.jpg","<%values.imagespath%>animal-silhouette-dog2nohead.jpg","<%values.imagespath%>house.jpg","<%values.imagespath%>dark-blue-circle-risky.jpg","<%values.imagespath%>light-blue-star-risky.jpg","<%values.imagespath%>dark-red-rectangle-safe.jpg","<%values.imagespath%>light-red-triangle-safe.jpg"
"5.0.10.0","110917","16:58:12","5015","26","testblock","2","largegain","39","face-03.jpg","10","10","24","0","2500","safe2","risky2","<%values.imagespath%>light-red-triangle-safe.jpg","<%values.imagespath%>light-blue-star-risky.jpg","right","risky2","13","2477","faces","tools","animals","places","<%values.imagespath%>face-03.jpg","<%values.imagespath%>hammer.jpg","<%values.imagespath%>animal-silhouette-dog2nohead.jpg","<%values.imagespath%>house.jpg","<%values.imagespath%>dark-blue-circle-risky.jpg","<%values.imagespath%>light-blue-star-risky.jpg","<%values.imagespath%>dark-red-rectangle-safe.jpg","<%values.imagespath%>light-red-triangle-safe.jpg"
"5.0.10.0","110917","16:58:12","5015","26","testblock","2","safe2question","41","light-red-triangle-safe.jpg","Why did you choose this machine? Press:              1 = 'To avoid -9'             2 = 'To avoid -1'             3 = 'To gain  2'             4 = 'To gain  10'","10","24","2","1550","risky1","safe2","<%values.imagespath%>dark-blue-circle-risky.jpg","<%values.imagespath%>light-red-triangle-safe.jpg","right","safe2","14","4140","faces","tools","animals","places","<%values.imagespath%>face-03.jpg","<%values.imagespath%>hammer.jpg","<%values.imagespath%>animal-silhouette-dog2nohead.jpg","<%values.imagespath%>house.jpg","<%values.imagespath%>dark-blue-circle-risky.jpg","<%values.imagespath%>light-blue-star-risky.jpg","<%values.imagespath%>dark-red-rectangle-safe.jpg","<%values.imagespath%>light-red-triangle-safe.jpg"
"5.0.10.0","110917","16:58:12","5015","26","testblock","2","smallgain","42","hammer.jpg","2","2","26","0","2500","risky1","safe2","<%values.imagespath%>dark-blue-circle-risky.jpg","<%values.imagespath%>light-red-triangle-safe.jpg","right","safe2","14","4140","faces","tools","animals","places","<%values.imagespath%>face-03.jpg","<%values.imagespath%>hammer.jpg","<%values.imagespath%>animal-silhouette-dog2nohead.jpg","<%values.imagespath%>house.jpg","<%values.imagespath%>dark-blue-circle-risky.jpg","<%values.imagespath%>light-blue-star-risky.jpg","<%values.imagespath%>dark-red-rectangle-safe.jpg","<%values.imagespath%>light-red-triangle-safe.jpg"
"5.0.10.0","110917","16:58:12","5015","26","testblock","2","risky1question","44","dark-blue-circle-risky.jpg","Why did you choose this machine? Press:              1 = 'To avoid -9'             2 = 'To avoid -1'             3 = 'To gain  2'             4 = 'To gain  10'","2","26","5","1464","safe2","risky1","<%values.imagespath%>light-red-triangle-safe.jpg","<%values.imagespath%>dark-blue-circle-risky.jpg","right","safe2","15","2385","faces","tools","animals","places","<%values.imagespath%>face-03.jpg","<%values.imagespath%>hammer.jpg","<%values.imagespath%>animal-silhouette-dog2nohead.jpg","<%values.imagespath%>house.jpg","<%values.imagespath%>dark-blue-circle-risky.jpg","<%values.imagespath%>light-blue-star-risky.jpg","<%values.imagespath%>dark-red-rectangle-safe.jpg","<%values.imagespath%>light-red-triangle-safe.jpg"
"5.0.10.0","110917","16:58:12","5015","26","testblock","2","smallloss","45","animal-silhouette-dog2nohead.jpg","2","-1","25","0","2500","safe2","risky1","<%values.imagespath%>light-red-triangle-safe.jpg","<%values.imagespath%>dark-blue-circle-risky.jpg","right","safe2","15","2385","faces","tools","animals","places","<%values.imagespath%>face-03.jpg","<%values.imagespath%>hammer.jpg","<%values.imagespath%>animal-silhouette-dog2nohead.jpg","<%values.imagespath%>house.jpg","<%values.imagespath%>dark-blue-circle-risky.jpg","<%values.imagespath%>light-blue-star-risky.jpg","<%values.imagespath%>dark-red-rectangle-safe.jpg","<%values.imagespath%>light-red-triangle-safe.jpg"
"5.0.10.0","110917","16:58:12","5015","26","testblock","2","safe1question","47","dark-red-rectangle-safe.jpg","Why did you choose this machine? Press:              1 = 'To avoid -9'             2 = 'To avoid -1'             3 = 'To gain  2'             4 = 'To gain  10'","-1","25","2","1065","risky1","safe1","<%values.imagespath%>dark-blue-circle-risky.jpg","<%values.imagespath%>dark-red-rectangle-safe.jpg","right","safe1","16","2319","faces","tools","animals","places","<%values.imagespath%>face-03.jpg","<%values.imagespath%>hammer.jpg","<%values.imagespath%>animal-silhouette-dog2nohead.jpg","<%values.imagespath%>house.jpg","<%values.imagespath%>dark-blue-circle-risky.jpg","<%values.imagespath%>light-blue-star-risky.jpg","<%values.imagespath%>dark-red-rectangle-safe.jpg","<%values.imagespath%>light-red-triangle-safe.jpg"
"5.0.10.0","110917","16:58:12","5015","26","testblock","2","smallgain","48","hammer.jpg","2","2","27","0","2500","risky1","safe1","<%values.imagespath%>dark-blue-circle-risky.jpg","<%values.imagespath%>dark-red-rectangle-safe.jpg","right","safe1","16","2319","faces","tools","animals","places","<%values.imagespath%>face-03.jpg","<%values.imagespath%>hammer.jpg","<%values.imagespath%>animal-silhouette-dog2nohead.jpg","<%values.imagespath%>house.jpg","<%values.imagespath%>dark-blue-circle-risky.jpg","<%values.imagespath%>light-blue-star-risky.jpg","<%values.imagespath%>dark-red-rectangle-safe.jpg","<%values.imagespath%>light-red-triangle-safe.jpg"
"5.0.10.0","110917","16:58:12","5015","26","testblock","2","safe2question","50","light-red-triangle-safe.jpg","Why did you choose this machine? Press:              1 = 'To avoid -9'             2 = 'To avoid -1'             3 = 'To gain  2'             4 = 'To gain  10'","2","27","2","2284","risky2","safe2","<%values.imagespath%>light-blue-star-risky.jpg","<%values.imagespath%>light-red-triangle-safe.jpg","right","safe2","17","1455","faces","tools","animals","places","<%values.imagespath%>face-03.jpg","<%values.imagespath%>hammer.jpg","<%values.imagespath%>animal-silhouette-dog2nohead.jpg","<%values.imagespath%>house.jpg","<%values.imagespath%>dark-blue-circle-risky.jpg","<%values.imagespath%>light-blue-star-risky.jpg","<%values.imagespath%>dark-red-rectangle-safe.jpg","<%values.imagespath%>light-red-triangle-safe.jpg"
"5.0.10.0","110917","16:58:12","5015","26","testblock","2","smallloss","51","animal-silhouette-dog2nohead.jpg","2","-1","26","0","2500","risky2","safe2","<%values.imagespath%>light-blue-star-risky.jpg","<%values.imagespath%>light-red-triangle-safe.jpg","right","safe2","17","1455","faces","tools","animals","places","<%values.imagespath%>face-03.jpg","<%values.imagespath%>hammer.jpg","<%values.imagespath%>animal-silhouette-dog2nohead.jpg","<%values.imagespath%>house.jpg","<%values.imagespath%>dark-blue-circle-risky.jpg","<%values.imagespath%>light-blue-star-risky.jpg","<%values.imagespath%>dark-red-rectangle-safe.jpg","<%values.imagespath%>light-red-triangle-safe.jpg"
"5.0.10.0","110917","16:58:12","5015","26","testblock","2","risky2question","53","light-blue-star-risky.jpg","Why did you choose this machine? Press:              1 = 'To avoid -9'             2 = 'To avoid -1'             3 = 'To gain  2'             4 = 'To gain  10'","-1","26","5","526","safe1","risky2","<%values.imagespath%>dark-red-rectangle-safe.jpg","<%values.imagespath%>light-blue-star-risky.jpg","right","risky2","18","1874","faces","tools","animals","places","<%values.imagespath%>face-03.jpg","<%values.imagespath%>hammer.jpg","<%values.imagespath%>animal-silhouette-dog2nohead.jpg","<%values.imagespath%>house.jpg","<%values.imagespath%>dark-blue-circle-risky.jpg","<%values.imagespath%>light-blue-star-risky.jpg","<%values.imagespath%>dark-red-rectangle-safe.jpg","<%values.imagespath%>light-red-triangle-safe.jpg"
"5.0.10.0","110917","16:58:12","5015","26","testblock","2","largeloss","54","house.jpg","-9","-9","17","0","2500","safe1","risky2","<%values.imagespath%>dark-red-rectangle-safe.jpg","<%values.imagespath%>light-blue-star-risky.jpg","right","risky2","18","1874","faces","tools","animals","places","<%values.imagespath%>face-03.jpg","<%values.imagespath%>hammer.jpg","<%values.imagespath%>animal-silhouette-dog2nohead.jpg","<%values.imagespath%>house.jpg","<%values.imagespath%>dark-blue-circle-risky.jpg","<%values.imagespath%>light-blue-star-risky.jpg","<%values.imagespath%>dark-red-rectangle-safe.jpg","<%values.imagespath%>light-red-triangle-safe.jpg"
"5.0.10.0","110917","16:58:12","5015","26","testblock","2","safe1question","56","dark-red-rectangle-safe.jpg","Why did you choose this machine? Press:              1 = 'To avoid -9'             2 = 'To avoid -1'             3 = 'To gain  2'             4 = 'To gain  10'","-9","17","2","1715","risky2","safe1","<%values.imagespath%>light-blue-star-risky.jpg","<%values.imagespath%>dark-red-rectangle-safe.jpg","right","safe1","19","3170","faces","tools","animals","places","<%values.imagespath%>face-03.jpg","<%values.imagespath%>hammer.jpg","<%values.imagespath%>animal-silhouette-dog2nohead.jpg","<%values.imagespath%>house.jpg","<%values.imagespath%>dark-blue-circle-risky.jpg","<%values.imagespath%>light-blue-star-risky.jpg","<%values.imagespath%>dark-red-rectangle-safe.jpg","<%values.imagespath%>light-red-triangle-safe.jpg"
"5.0.10.0","110917","16:58:12","5015","26","testblock","2","smallloss","57","animal-silhouette-dog2nohead.jpg","2","-1","16","0","2500","risky2","safe1","<%values.imagespath%>light-blue-star-risky.jpg","<%values.imagespath%>dark-red-rectangle-safe.jpg","right","safe1","19","3170","faces","tools","animals","places","<%values.imagespath%>face-03.jpg","<%values.imagespath%>hammer.jpg","<%values.imagespath%>animal-silhouette-dog2nohead.jpg","<%values.imagespath%>house.jpg","<%values.imagespath%>dark-blue-circle-risky.jpg","<%values.imagespath%>light-blue-star-risky.jpg","<%values.imagespath%>dark-red-rectangle-safe.jpg","<%values.imagespath%>light-red-triangle-safe.jpg"
"5.0.10.0","110917","16:58:12","5015","26","testblock","2","safe2question","59","light-red-triangle-safe.jpg","Why did you choose this machine? Press:              1 = 'To avoid -9'             2 = 'To avoid -1'             3 = 'To gain  2'             4 = 'To gain  10'","-1","16","2","731","risky1","safe2","<%values.imagespath%>dark-blue-circle-risky.jpg","<%values.imagespath%>light-red-triangle-safe.jpg","right","safe2","20","2071","faces","tools","animals","places","<%values.imagespath%>face-03.jpg","<%values.imagespath%>hammer.jpg","<%values.imagespath%>animal-silhouette-dog2nohead.jpg","<%values.imagespath%>house.jpg","<%values.imagespath%>dark-blue-circle-risky.jpg","<%values.imagespath%>light-blue-star-risky.jpg","<%values.imagespath%>dark-red-rectangle-safe.jpg","<%values.imagespath%>light-red-triangle-safe.jpg"
"5.0.10.0","110917","16:58:12","5015","26","testblock","2","smallgain","60","hammer.jpg","2","2","18","0","2500","risky1","safe2","<%values.imagespath%>dark-blue-circle-risky.jpg","<%values.imagespath%>light-red-triangle-safe.jpg","right","safe2","20","2071","faces","tools","animals","places","<%values.imagespath%>face-03.jpg","<%values.imagespath%>hammer.jpg","<%values.imagespath%>animal-silhouette-dog2nohead.jpg","<%values.imagespath%>house.jpg","<%values.imagespath%>dark-blue-circle-risky.jpg","<%values.imagespath%>light-blue-star-risky.jpg","<%values.imagespath%>dark-red-rectangle-safe.jpg","<%values.imagespath%>light-red-triangle-safe.jpg"
"5.0.10.0","110917","16:58:12","5015","26","testblock","2","risky2question","62","light-blue-star-risky.jpg","Why did you choose this machine? Press:              1 = 'To avoid -9'             2 = 'To avoid -1'             3 = 'To gain  2'             4 = 'To gain  10'","2","18","5","529","safe1","risky2","<%values.imagespath%>dark-red-rectangle-safe.jpg","<%values.imagespath%>light-blue-star-risky.jpg","right","risky2","21","1544","faces","tools","animals","places","<%values.imagespath%>face-03.jpg","<%values.imagespath%>hammer.jpg","<%values.imagespath%>animal-silhouette-dog2nohead.jpg","<%values.imagespath%>house.jpg","<%values.imagespath%>dark-blue-circle-risky.jpg","<%values.imagespath%>light-blue-star-risky.jpg","<%values.imagespath%>dark-red-rectangle-safe.jpg","<%values.imagespath%>light-red-triangle-safe.jpg"
"5.0.10.0","110917","16:58:12","5015","26","testblock","2","largegain","63","face-03.jpg","10","10","28","0","2500","safe1","risky2","<%values.imagespath%>dark-red-rectangle-safe.jpg","<%values.imagespath%>light-blue-star-risky.jpg","right","risky2","21","1544","faces","tools","animals","places","<%values.imagespath%>face-03.jpg","<%values.imagespath%>hammer.jpg","<%values.imagespath%>animal-silhouette-dog2nohead.jpg","<%values.imagespath%>house.jpg","<%values.imagespath%>dark-blue-circle-risky.jpg","<%values.imagespath%>light-blue-star-risky.jpg","<%values.imagespath%>dark-red-rectangle-safe.jpg","<%values.imagespath%>light-red-triangle-safe.jpg"
"5.0.10.0","110917","16:58:12","5015","26","testblock","2","safe1question","65","dark-red-rectangle-safe.jpg","Why did you choose this machine? Press:              1 = 'To avoid -9'             2 = 'To avoid -1'             3 = 'To gain  2'             4 = 'To gain  10'","10","28","2","518","risky1","safe1","<%values.imagespath%>dark-blue-circle-risky.jpg","<%values.imagespath%>dark-red-rectangle-safe.jpg","right","safe1","22","1557","faces","tools","animals","places","<%values.imagespath%>face-03.jpg","<%values.imagespath%>hammer.jpg","<%values.imagespath%>animal-silhouette-dog2nohead.jpg","<%values.imagespath%>house.jpg","<%values.imagespath%>dark-blue-circle-risky.jpg","<%values.imagespath%>light-blue-star-risky.jpg","<%values.imagespath%>dark-red-rectangle-safe.jpg","<%values.imagespath%>light-red-triangle-safe.jpg"
"5.0.10.0","110917","16:58:12","5015","26","testblock","2","smallloss","66","animal-silhouette-dog2nohead.jpg","2","-1","27","0","2500","risky1","safe1","<%values.imagespath%>dark-blue-circle-risky.jpg","<%values.imagespath%>dark-red-rectangle-safe.jpg","right","safe1","22","1557","faces","tools","animals","places","<%values.imagespath%>face-03.jpg","<%values.imagespath%>hammer.jpg","<%values.imagespath%>animal-silhouette-dog2nohead.jpg","<%values.imagespath%>house.jpg","<%values.imagespath%>dark-blue-circle-risky.jpg","<%values.imagespath%>light-blue-star-risky.jpg","<%values.imagespath%>dark-red-rectangle-safe.jpg","<%values.imagespath%>light-red-triangle-safe.jpg"
"5.0.10.0","110917","16:58:12","5015","26","testblock","2","safe1question","68","dark-red-rectangle-safe.jpg","Why did you choose this machine? Press:              1 = 'To avoid -9'             2 = 'To avoid -1'             3 = 'To gain  2'             4 = 'To gain  10'","-1","27","2","662","risky1","safe1","<%values.imagespath%>dark-blue-circle-risky.jpg","<%values.imagespath%>dark-red-rectangle-safe.jpg","right","safe1","23","3866","faces","tools","animals","places","<%values.imagespath%>face-03.jpg","<%values.imagespath%>hammer.jpg","<%values.imagespath%>animal-silhouette-dog2nohead.jpg","<%values.imagespath%>house.jpg","<%values.imagespath%>dark-blue-circle-risky.jpg","<%values.imagespath%>light-blue-star-risky.jpg","<%values.imagespath%>dark-red-rectangle-safe.jpg","<%values.imagespath%>light-red-triangle-safe.jpg"
"5.0.10.0","110917","16:58:12","5015","26","testblock","2","smallgain","69","hammer.jpg","2","2","29","0","2500","risky1","safe1","<%values.imagespath%>dark-blue-circle-risky.jpg","<%values.imagespath%>dark-red-rectangle-safe.jpg","right","safe1","23","3866","faces","tools","animals","places","<%values.imagespath%>face-03.jpg","<%values.imagespath%>hammer.jpg","<%values.imagespath%>animal-silhouette-dog2nohead.jpg","<%values.imagespath%>house.jpg","<%values.imagespath%>dark-blue-circle-risky.jpg","<%values.imagespath%>light-blue-star-risky.jpg","<%values.imagespath%>dark-red-rectangle-safe.jpg","<%values.imagespath%>light-red-triangle-safe.jpg"
"5.0.10.0","110917","16:58:12","5015","26","testblock","2","safe1question","71","dark-red-rectangle-safe.jpg","Why did you choose this machine? Press:              1 = 'To avoid -9'             2 = 'To avoid -1'             3 = 'To gain  2'             4 = 'To gain  10'","2","29","2","641","risky2","safe1","<%values.imagespath%>light-blue-star-risky.jpg","<%values.imagespath%>dark-red-rectangle-safe.jpg","right","safe1","24","3685","faces","tools","animals","places","<%values.imagespath%>face-03.jpg","<%values.imagespath%>hammer.jpg","<%values.imagespath%>animal-silhouette-dog2nohead.jpg","<%values.imagespath%>house.jpg","<%values.imagespath%>dark-blue-circle-risky.jpg","<%values.imagespath%>light-blue-star-risky.jpg","<%values.imagespath%>dark-red-rectangle-safe.jpg","<%values.imagespath%>light-red-triangle-safe.jpg"
"5.0.10.0","110917","16:58:12","5015","26","testblock","2","largegain","72","face-03.jpg","10","10","39","0","2500","risky2","safe1","<%values.imagespath%>light-blue-star-risky.jpg","<%values.imagespath%>dark-red-rectangle-safe.jpg","right","safe1","24","3685","faces","tools","animals","places","<%values.imagespath%>face-03.jpg","<%values.imagespath%>hammer.jpg","<%values.imagespath%>animal-silhouette-dog2nohead.jpg","<%values.imagespath%>house.jpg","<%values.imagespath%>dark-blue-circle-risky.jpg","<%values.imagespath%>light-blue-star-risky.jpg","<%values.imagespath%>dark-red-rectangle-safe.jpg","<%values.imagespath%>light-red-triangle-safe.jpg"
"5.0.10.0","110917","16:58:12","5015","26","testblock","2","risky1question","74","dark-blue-circle-risky.jpg","Why did you choose this machine? Press:              1 = 'To avoid -9'             2 = 'To avoid -1'             3 = 'To gain  2'             4 = 'To gain  10'","10","39","5","445","safe1","risky1","<%values.imagespath%>dark-red-rectangle-safe.jpg","<%values.imagespath%>dark-blue-circle-risky.jpg","right","risky1","25","1440","faces","tools","animals","places","<%values.imagespath%>face-03.jpg","<%values.imagespath%>hammer.jpg","<%values.imagespath%>animal-silhouette-dog2nohead.jpg","<%values.imagespath%>house.jpg","<%values.imagespath%>dark-blue-circle-risky.jpg","<%values.imagespath%>light-blue-star-risky.jpg","<%values.imagespath%>dark-red-rectangle-safe.jpg","<%values.imagespath%>light-red-triangle-safe.jpg"
"5.0.10.0","110917","16:58:12","5015","26","testblock","2","largegain","75","face-03.jpg","10","10","49","0","2500","safe1","risky1","<%values.imagespath%>dark-red-rectangle-safe.jpg","<%values.imagespath%>dark-blue-circle-risky.jpg","right","risky1","25","1440","faces","tools","animals","places","<%values.imagespath%>face-03.jpg","<%values.imagespath%>hammer.jpg","<%values.imagespath%>animal-silhouette-dog2nohead.jpg","<%values.imagespath%>house.jpg","<%values.imagespath%>dark-blue-circle-risky.jpg","<%values.imagespath%>light-blue-star-risky.jpg","<%values.imagespath%>dark-red-rectangle-safe.jpg","<%values.imagespath%>light-red-triangle-safe.jpg"
"5.0.10.0","110917","16:58:12","5015","26","testblock","2","attention_check","76","You are halfway through the task.  Press the spacebar when you are ready to continue.","0","10","49","57","3261","safe1","risky1","<%values.imagespath%>dark-red-rectangle-safe.jpg","<%values.imagespath%>dark-blue-circle-risky.jpg","right","risky1","25","1440","faces","tools","animals","places","<%values.imagespath%>face-03.jpg","<%values.imagespath%>hammer.jpg","<%values.imagespath%>animal-silhouette-dog2nohead.jpg","<%values.imagespath%>house.jpg","<%values.imagespath%>dark-blue-circle-risky.jpg","<%values.imagespath%>light-blue-star-risky.jpg","<%values.imagespath%>dark-red-rectangle-safe.jpg","<%values.imagespath%>light-red-triangle-safe.jpg"
"5.0.10.0","110917","16:58:12","5015","26","testblock","2","safe2question","78","light-red-triangle-safe.jpg","Why did you choose this machine? Press:              1 = 'To avoid -9'             2 = 'To avoid -1'             3 = 'To gain  2'             4 = 'To gain  10'","10","49","2","612","risky1","safe2","<%values.imagespath%>dark-blue-circle-risky.jpg","<%values.imagespath%>light-red-triangle-safe.jpg","right","safe2","26","8753","faces","tools","animals","places","<%values.imagespath%>face-03.jpg","<%values.imagespath%>hammer.jpg","<%values.imagespath%>animal-silhouette-dog2nohead.jpg","<%values.imagespath%>house.jpg","<%values.imagespath%>dark-blue-circle-risky.jpg","<%values.imagespath%>light-blue-star-risky.jpg","<%values.imagespath%>dark-red-rectangle-safe.jpg","<%values.imagespath%>light-red-triangle-safe.jpg"
"5.0.10.0","110917","16:58:12","5015","26","testblock","2","smallgain","79","hammer.jpg","2","2","51","0","2500","risky1","safe2","<%values.imagespath%>dark-blue-circle-risky.jpg","<%values.imagespath%>light-red-triangle-safe.jpg","right","safe2","26","8753","faces","tools","animals","places","<%values.imagespath%>face-03.jpg","<%values.imagespath%>hammer.jpg","<%values.imagespath%>animal-silhouette-dog2nohead.jpg","<%values.imagespath%>house.jpg","<%values.imagespath%>dark-blue-circle-risky.jpg","<%values.imagespath%>light-blue-star-risky.jpg","<%values.imagespath%>dark-red-rectangle-safe.jpg","<%values.imagespath%>light-red-triangle-safe.jpg"
"5.0.10.0","110917","16:58:12","5015","26","testblock","2","safe1question","81","dark-red-rectangle-safe.jpg","Why did you choose this machine? Press:              1 = 'To avoid -9'             2 = 'To avoid -1'             3 = 'To gain  2'             4 = 'To gain  10'","2","51","2","421","risky1","safe1","<%values.imagespath%>dark-blue-circle-risky.jpg","<%values.imagespath%>dark-red-rectangle-safe.jpg","right","safe1","27","1949","faces","tools","animals","places","<%values.imagespath%>face-03.jpg","<%values.imagespath%>hammer.jpg","<%values.imagespath%>animal-silhouette-dog2nohead.jpg","<%values.imagespath%>house.jpg","<%values.imagespath%>dark-blue-circle-risky.jpg","<%values.imagespath%>light-blue-star-risky.jpg","<%values.imagespath%>dark-red-rectangle-safe.jpg","<%values.imagespath%>light-red-triangle-safe.jpg"
"5.0.10.0","110917","16:58:12","5015","26","testblock","2","smallloss","82","animal-silhouette-dog2nohead.jpg","2","-1","50","0","2500","risky1","safe1","<%values.imagespath%>dark-blue-circle-risky.jpg","<%values.imagespath%>dark-red-rectangle-safe.jpg","right","safe1","27","1949","faces","tools","animals","places","<%values.imagespath%>face-03.jpg","<%values.imagespath%>hammer.jpg","<%values.imagespath%>animal-silhouette-dog2nohead.jpg","<%values.imagespath%>house.jpg","<%values.imagespath%>dark-blue-circle-risky.jpg","<%values.imagespath%>light-blue-star-risky.jpg","<%values.imagespath%>dark-red-rectangle-safe.jpg","<%values.imagespath%>light-red-triangle-safe.jpg"
"5.0.10.0","110917","16:58:12","5015","26","testblock","2","risky2question","84","light-blue-star-risky.jpg","Why did you choose this machine? Press:              1 = 'To avoid -9'             2 = 'To avoid -1'             3 = 'To gain  2'             4 = 'To gain  10'","-1","50","5","353","safe1","risky2","<%values.imagespath%>dark-red-rectangle-safe.jpg","<%values.imagespath%>light-blue-star-risky.jpg","right","risky2","28","1485","faces","tools","animals","places","<%values.imagespath%>face-03.jpg","<%values.imagespath%>hammer.jpg","<%values.imagespath%>animal-silhouette-dog2nohead.jpg","<%values.imagespath%>house.jpg","<%values.imagespath%>dark-blue-circle-risky.jpg","<%values.imagespath%>light-blue-star-risky.jpg","<%values.imagespath%>dark-red-rectangle-safe.jpg","<%values.imagespath%>light-red-triangle-safe.jpg"
"5.0.10.0","110917","16:58:12","5015","26","testblock","2","smallloss","85","animal-silhouette-dog2nohead.jpg","2","-1","49","0","2500","safe1","risky2","<%values.imagespath%>dark-red-rectangle-safe.jpg","<%values.imagespath%>light-blue-star-risky.jpg","right","risky2","28","1485","faces","tools","animals","places","<%values.imagespath%>face-03.jpg","<%values.imagespath%>hammer.jpg","<%values.imagespath%>animal-silhouette-dog2nohead.jpg","<%values.imagespath%>house.jpg","<%values.imagespath%>dark-blue-circle-risky.jpg","<%values.imagespath%>light-blue-star-risky.jpg","<%values.imagespath%>dark-red-rectangle-safe.jpg","<%values.imagespath%>light-red-triangle-safe.jpg"
"5.0.10.0","110917","16:58:12","5015","26","testblock","2","safe2question","87","light-red-triangle-safe.jpg","Why did you choose this machine? Press:              1 = 'To avoid -9'             2 = 'To avoid -1'             3 = 'To gain  2'             4 = 'To gain  10'","-1","49","2","288","safe2","risky1","<%values.imagespath%>light-red-triangle-safe.jpg","<%values.imagespath%>dark-blue-circle-risky.jpg","right","risky1","29","3235","faces","tools","animals","places","<%values.imagespath%>face-03.jpg","<%values.imagespath%>hammer.jpg","<%values.imagespath%>animal-silhouette-dog2nohead.jpg","<%values.imagespath%>house.jpg","<%values.imagespath%>dark-blue-circle-risky.jpg","<%values.imagespath%>light-blue-star-risky.jpg","<%values.imagespath%>dark-red-rectangle-safe.jpg","<%values.imagespath%>light-red-triangle-safe.jpg"
"5.0.10.0","110917","16:58:12","5015","26","testblock","2","smallloss","88","animal-silhouette-dog2nohead.jpg","2","-1","48","0","2500","safe2","risky1","<%values.imagespath%>light-red-triangle-safe.jpg","<%values.imagespath%>dark-blue-circle-risky.jpg","right","risky1","29","3235","faces","tools","animals","places","<%values.imagespath%>face-03.jpg","<%values.imagespath%>hammer.jpg","<%values.imagespath%>animal-silhouette-dog2nohead.jpg","<%values.imagespath%>house.jpg","<%values.imagespath%>dark-blue-circle-risky.jpg","<%values.imagespath%>light-blue-star-risky.jpg","<%values.imagespath%>dark-red-rectangle-safe.jpg","<%values.imagespath%>light-red-triangle-safe.jpg"
"5.0.10.0","110917","16:58:12","5015","26","testblock","2","risky1question","90","dark-blue-circle-risky.jpg","Why did you choose this machine? Press:              1 = 'To avoid -9'             2 = 'To avoid -1'             3 = 'To gain  2'             4 = 'To gain  10'","-1","48","5","283","risky1","safe2","<%values.imagespath%>dark-blue-circle-risky.jpg","<%values.imagespath%>light-red-triangle-safe.jpg","left","risky1","30","1838","faces","tools","animals","places","<%values.imagespath%>face-03.jpg","<%values.imagespath%>hammer.jpg","<%values.imagespath%>animal-silhouette-dog2nohead.jpg","<%values.imagespath%>house.jpg","<%values.imagespath%>dark-blue-circle-risky.jpg","<%values.imagespath%>light-blue-star-risky.jpg","<%values.imagespath%>dark-red-rectangle-safe.jpg","<%values.imagespath%>light-red-triangle-safe.jpg"
"5.0.10.0","110917","16:58:12","5015","26","testblock","2","largeloss","91","house.jpg","-9","-9","39","0","2500","risky1","safe2","<%values.imagespath%>dark-blue-circle-risky.jpg","<%values.imagespath%>light-red-triangle-safe.jpg","left","risky1","30","1838","faces","tools","animals","places","<%values.imagespath%>face-03.jpg","<%values.imagespath%>hammer.jpg","<%values.imagespath%>animal-silhouette-dog2nohead.jpg","<%values.imagespath%>house.jpg","<%values.imagespath%>dark-blue-circle-risky.jpg","<%values.imagespath%>light-blue-star-risky.jpg","<%values.imagespath%>dark-red-rectangle-safe.jpg","<%values.imagespath%>light-red-triangle-safe.jpg"
"5.0.10.0","110917","16:58:12","5015","26","testblock","2","risky1question","93","dark-blue-circle-risky.jpg","Why did you choose this machine? Press:              1 = 'To avoid -9'             2 = 'To avoid -1'             3 = 'To gain  2'             4 = 'To gain  10'","-9","39","5","1543","safe1","risky1","<%values.imagespath%>dark-red-rectangle-safe.jpg","<%values.imagespath%>dark-blue-circle-risky.jpg","right","risky1","31","5232","faces","tools","animals","places","<%values.imagespath%>face-03.jpg","<%values.imagespath%>hammer.jpg","<%values.imagespath%>animal-silhouette-dog2nohead.jpg","<%values.imagespath%>house.jpg","<%values.imagespath%>dark-blue-circle-risky.jpg","<%values.imagespath%>light-blue-star-risky.jpg","<%values.imagespath%>dark-red-rectangle-safe.jpg","<%values.imagespath%>light-red-triangle-safe.jpg"
"5.0.10.0","110917","16:58:12","5015","26","testblock","2","largegain","94","face-03.jpg","10","10","49","0","2500","safe1","risky1","<%values.imagespath%>dark-red-rectangle-safe.jpg","<%values.imagespath%>dark-blue-circle-risky.jpg","right","risky1","31","5232","faces","tools","animals","places","<%values.imagespath%>face-03.jpg","<%values.imagespath%>hammer.jpg","<%values.imagespath%>animal-silhouette-dog2nohead.jpg","<%values.imagespath%>house.jpg","<%values.imagespath%>dark-blue-circle-risky.jpg","<%values.imagespath%>light-blue-star-risky.jpg","<%values.imagespath%>dark-red-rectangle-safe.jpg","<%values.imagespath%>light-red-triangle-safe.jpg"
"5.0.10.0","110917","16:58:12","5015","26","testblock","2","risky2question","96","light-blue-star-risky.jpg","Why did you choose this machine? Press:              1 = 'To avoid -9'             2 = 'To avoid -1'             3 = 'To gain  2'             4 = 'To gain  10'","10","49","5","279","safe1","risky2","<%values.imagespath%>dark-red-rectangle-safe.jpg","<%values.imagespath%>light-blue-star-risky.jpg","right","risky2","32","1059","faces","tools","animals","places","<%values.imagespath%>face-03.jpg","<%values.imagespath%>hammer.jpg","<%values.imagespath%>animal-silhouette-dog2nohead.jpg","<%values.imagespath%>house.jpg","<%values.imagespath%>dark-blue-circle-risky.jpg","<%values.imagespath%>light-blue-star-risky.jpg","<%values.imagespath%>dark-red-rectangle-safe.jpg","<%values.imagespath%>light-red-triangle-safe.jpg"
"5.0.10.0","110917","16:58:12","5015","26","testblock","2","smallgain","97","hammer.jpg","2","2","51","0","2500","safe1","risky2","<%values.imagespath%>dark-red-rectangle-safe.jpg","<%values.imagespath%>light-blue-star-risky.jpg","right","risky2","32","1059","faces","tools","animals","places","<%values.imagespath%>face-03.jpg","<%values.imagespath%>hammer.jpg","<%values.imagespath%>animal-silhouette-dog2nohead.jpg","<%values.imagespath%>house.jpg","<%values.imagespath%>dark-blue-circle-risky.jpg","<%values.imagespath%>light-blue-star-risky.jpg","<%values.imagespath%>dark-red-rectangle-safe.jpg","<%values.imagespath%>light-red-triangle-safe.jpg"
"5.0.10.0","110917","16:58:12","5015","26","testblock","2","risky2question","99","light-blue-star-risky.jpg","Why did you choose this machine? Press:              1 = 'To avoid -9'             2 = 'To avoid -1'             3 = 'To gain  2'             4 = 'To gain  10'","2","51","5","99","safe2","risky2","<%values.imagespath%>light-red-triangle-safe.jpg","<%values.imagespath%>light-blue-star-risky.jpg","right","risky2","33","813","faces","tools","animals","places","<%values.imagespath%>face-03.jpg","<%values.imagespath%>hammer.jpg","<%values.imagespath%>animal-silhouette-dog2nohead.jpg","<%values.imagespath%>house.jpg","<%values.imagespath%>dark-blue-circle-risky.jpg","<%values.imagespath%>light-blue-star-risky.jpg","<%values.imagespath%>dark-red-rectangle-safe.jpg","<%values.imagespath%>light-red-triangle-safe.jpg"
"5.0.10.0","110917","16:58:12","5015","26","testblock","2","largeloss","100","house.jpg","-9","-9","42","0","2500","safe2","risky2","<%values.imagespath%>light-red-triangle-safe.jpg","<%values.imagespath%>light-blue-star-risky.jpg","right","risky2","33","813","faces","tools","animals","places","<%values.imagespath%>face-03.jpg","<%values.imagespath%>hammer.jpg","<%values.imagespath%>animal-silhouette-dog2nohead.jpg","<%values.imagespath%>house.jpg","<%values.imagespath%>dark-blue-circle-risky.jpg","<%values.imagespath%>light-blue-star-risky.jpg","<%values.imagespath%>dark-red-rectangle-safe.jpg","<%values.imagespath%>light-red-triangle-safe.jpg"
"5.0.10.0","110917","16:58:12","5015","26","testblock","2","safe1question","102","dark-red-rectangle-safe.jpg","Why did you choose this machine? Press:              1 = 'To avoid -9'             2 = 'To avoid -1'             3 = 'To gain  2'             4 = 'To gain  10'","-9","42","2","157","risky1","safe1","<%values.imagespath%>dark-blue-circle-risky.jpg","<%values.imagespath%>dark-red-rectangle-safe.jpg","right","safe1","34","1848","faces","tools","animals","places","<%values.imagespath%>face-03.jpg","<%values.imagespath%>hammer.jpg","<%values.imagespath%>animal-silhouette-dog2nohead.jpg","<%values.imagespath%>house.jpg","<%values.imagespath%>dark-blue-circle-risky.jpg","<%values.imagespath%>light-blue-star-risky.jpg","<%values.imagespath%>dark-red-rectangle-safe.jpg","<%values.imagespath%>light-red-triangle-safe.jpg"
"5.0.10.0","110917","16:58:12","5015","26","testblock","2","smallgain","103","hammer.jpg","2","2","44","0","2500","risky1","safe1","<%values.imagespath%>dark-blue-circle-risky.jpg","<%values.imagespath%>dark-red-rectangle-safe.jpg","right","safe1","34","1848","faces","tools","animals","places","<%values.imagespath%>face-03.jpg","<%values.imagespath%>hammer.jpg","<%values.imagespath%>animal-silhouette-dog2nohead.jpg","<%values.imagespath%>house.jpg","<%values.imagespath%>dark-blue-circle-risky.jpg","<%values.imagespath%>light-blue-star-risky.jpg","<%values.imagespath%>dark-red-rectangle-safe.jpg","<%values.imagespath%>light-red-triangle-safe.jpg"
"5.0.10.0","110917","16:58:12","5015","26","testblock","2","safe2question","105","light-red-triangle-safe.jpg","Why did you choose this machine? Press:              1 = 'To avoid -9'             2 = 'To avoid -1'             3 = 'To gain  2'             4 = 'To gain  10'","2","44","2","111","risky2","safe2","<%values.imagespath%>light-blue-star-risky.jpg","<%values.imagespath%>light-red-triangle-safe.jpg","right","safe2","35","2008","faces","tools","animals","places","<%values.imagespath%>face-03.jpg","<%values.imagespath%>hammer.jpg","<%values.imagespath%>animal-silhouette-dog2nohead.jpg","<%values.imagespath%>house.jpg","<%values.imagespath%>dark-blue-circle-risky.jpg","<%values.imagespath%>light-blue-star-risky.jpg","<%values.imagespath%>dark-red-rectangle-safe.jpg","<%values.imagespath%>light-red-triangle-safe.jpg"
"5.0.10.0","110917","16:58:12","5015","26","testblock","2","largeloss","106","house.jpg","-9","-9","35","0","2500","risky2","safe2","<%values.imagespath%>light-blue-star-risky.jpg","<%values.imagespath%>light-red-triangle-safe.jpg","right","safe2","35","2008","faces","tools","animals","places","<%values.imagespath%>face-03.jpg","<%values.imagespath%>hammer.jpg","<%values.imagespath%>animal-silhouette-dog2nohead.jpg","<%values.imagespath%>house.jpg","<%values.imagespath%>dark-blue-circle-risky.jpg","<%values.imagespath%>light-blue-star-risky.jpg","<%values.imagespath%>dark-red-rectangle-safe.jpg","<%values.imagespath%>light-red-triangle-safe.jpg"
"5.0.10.0","110917","16:58:12","5015","26","testblock","2","safe1question","108","dark-red-rectangle-safe.jpg","Why did you choose this machine? Press:              1 = 'To avoid -9'             2 = 'To avoid -1'             3 = 'To gain  2'             4 = 'To gain  10'","-9","35","2","611","safe1","risky1","<%values.imagespath%>dark-red-rectangle-safe.jpg","<%values.imagespath%>dark-blue-circle-risky.jpg","left","safe1","36","9435","faces","tools","animals","places","<%values.imagespath%>face-03.jpg","<%values.imagespath%>hammer.jpg","<%values.imagespath%>animal-silhouette-dog2nohead.jpg","<%values.imagespath%>house.jpg","<%values.imagespath%>dark-blue-circle-risky.jpg","<%values.imagespath%>light-blue-star-risky.jpg","<%values.imagespath%>dark-red-rectangle-safe.jpg","<%values.imagespath%>light-red-triangle-safe.jpg"
"5.0.10.0","110917","16:58:12","5015","26","testblock","2","smallgain","109","hammer.jpg","2","2","37","0","2500","safe1","risky1","<%values.imagespath%>dark-red-rectangle-safe.jpg","<%values.imagespath%>dark-blue-circle-risky.jpg","left","safe1","36","9435","faces","tools","animals","places","<%values.imagespath%>face-03.jpg","<%values.imagespath%>hammer.jpg","<%values.imagespath%>animal-silhouette-dog2nohead.jpg","<%values.imagespath%>house.jpg","<%values.imagespath%>dark-blue-circle-risky.jpg","<%values.imagespath%>light-blue-star-risky.jpg","<%values.imagespath%>dark-red-rectangle-safe.jpg","<%values.imagespath%>light-red-triangle-safe.jpg"
"5.0.10.0","110917","16:58:12","5015","26","testblock","2","safe2question","111","light-red-triangle-safe.jpg","Why did you choose this machine? Press:              1 = 'To avoid -9'             2 = 'To avoid -1'             3 = 'To gain  2'             4 = 'To gain  10'","2","37","2","2223","safe2","risky1","<%values.imagespath%>light-red-triangle-safe.jpg","<%values.imagespath%>dark-blue-circle-risky.jpg","left","safe2","37","1891","faces","tools","animals","places","<%values.imagespath%>face-03.jpg","<%values.imagespath%>hammer.jpg","<%values.imagespath%>animal-silhouette-dog2nohead.jpg","<%values.imagespath%>house.jpg","<%values.imagespath%>dark-blue-circle-risky.jpg","<%values.imagespath%>light-blue-star-risky.jpg","<%values.imagespath%>dark-red-rectangle-safe.jpg","<%values.imagespath%>light-red-triangle-safe.jpg"
"5.0.10.0","110917","16:58:12","5015","26","testblock","2","smallloss","112","animal-silhouette-dog2nohead.jpg","2","-1","36","0","2500","safe2","risky1","<%values.imagespath%>light-red-triangle-safe.jpg","<%values.imagespath%>dark-blue-circle-risky.jpg","left","safe2","37","1891","faces","tools","animals","places","<%values.imagespath%>face-03.jpg","<%values.imagespath%>hammer.jpg","<%values.imagespath%>animal-silhouette-dog2nohead.jpg","<%values.imagespath%>house.jpg","<%values.imagespath%>dark-blue-circle-risky.jpg","<%values.imagespath%>light-blue-star-risky.jpg","<%values.imagespath%>dark-red-rectangle-safe.jpg","<%values.imagespath%>light-red-triangle-safe.jpg"
"5.0.10.0","110917","16:58:12","5015","26","testblock","2","risky1question","114","dark-blue-circle-risky.jpg","Why did you choose this machine? Press:              1 = 'To avoid -9'             2 = 'To avoid -1'             3 = 'To gain  2'             4 = 'To gain  10'","-1","36","5","305","risky2","safe1","<%values.imagespath%>light-blue-star-risky.jpg","<%values.imagespath%>dark-red-rectangle-safe.jpg","left","risky2","38","1327","faces","tools","animals","places","<%values.imagespath%>face-03.jpg","<%values.imagespath%>hammer.jpg","<%values.imagespath%>animal-silhouette-dog2nohead.jpg","<%values.imagespath%>house.jpg","<%values.imagespath%>dark-blue-circle-risky.jpg","<%values.imagespath%>light-blue-star-risky.jpg","<%values.imagespath%>dark-red-rectangle-safe.jpg","<%values.imagespath%>light-red-triangle-safe.jpg"
"5.0.10.0","110917","16:58:12","5015","26","testblock","2","largegain","115","face-03.jpg","10","10","46","0","2500","risky2","safe1","<%values.imagespath%>light-blue-star-risky.jpg","<%values.imagespath%>dark-red-rectangle-safe.jpg","left","risky2","38","1327","faces","tools","animals","places","<%values.imagespath%>face-03.jpg","<%values.imagespath%>hammer.jpg","<%values.imagespath%>animal-silhouette-dog2nohead.jpg","<%values.imagespath%>house.jpg","<%values.imagespath%>dark-blue-circle-risky.jpg","<%values.imagespath%>light-blue-star-risky.jpg","<%values.imagespath%>dark-red-rectangle-safe.jpg","<%values.imagespath%>light-red-triangle-safe.jpg"
"5.0.10.0","110917","16:58:12","5015","26","testblock","2","risky1question","117","dark-blue-circle-risky.jpg","Why did you choose this machine? Press:              1 = 'To avoid -9'             2 = 'To avoid -1'             3 = 'To gain  2'             4 = 'To gain  10'","10","46","5","172","risky2","safe1","<%values.imagespath%>light-blue-star-risky.jpg","<%values.imagespath%>dark-red-rectangle-safe.jpg","left","risky2","39","1030","faces","tools","animals","places","<%values.imagespath%>face-03.jpg","<%values.imagespath%>hammer.jpg","<%values.imagespath%>animal-silhouette-dog2nohead.jpg","<%values.imagespath%>house.jpg","<%values.imagespath%>dark-blue-circle-risky.jpg","<%values.imagespath%>light-blue-star-risky.jpg","<%values.imagespath%>dark-red-rectangle-safe.jpg","<%values.imagespath%>light-red-triangle-safe.jpg"
"5.0.10.0","110917","16:58:12","5015","26","testblock","2","smallloss","118","animal-silhouette-dog2nohead.jpg","2","-1","45","0","2500","risky2","safe1","<%values.imagespath%>light-blue-star-risky.jpg","<%values.imagespath%>dark-red-rectangle-safe.jpg","left","risky2","39","1030","faces","tools","animals","places","<%values.imagespath%>face-03.jpg","<%values.imagespath%>hammer.jpg","<%values.imagespath%>animal-silhouette-dog2nohead.jpg","<%values.imagespath%>house.jpg","<%values.imagespath%>dark-blue-circle-risky.jpg","<%values.imagespath%>light-blue-star-risky.jpg","<%values.imagespath%>dark-red-rectangle-safe.jpg","<%values.imagespath%>light-red-triangle-safe.jpg"
"5.0.10.0","110917","16:58:12","5015","26","testblock","2","risky2question","120","light-blue-star-risky.jpg","Why did you choose this machine? Press:              1 = 'To avoid -9'             2 = 'To avoid -1'             3 = 'To gain  2'             4 = 'To gain  10'","-1","45","5","179","risky2","safe2","<%values.imagespath%>light-blue-star-risky.jpg","<%values.imagespath%>light-red-triangle-safe.jpg","left","risky2","40","829","faces","tools","animals","places","<%values.imagespath%>face-03.jpg","<%values.imagespath%>hammer.jpg","<%values.imagespath%>animal-silhouette-dog2nohead.jpg","<%values.imagespath%>house.jpg","<%values.imagespath%>dark-blue-circle-risky.jpg","<%values.imagespath%>light-blue-star-risky.jpg","<%values.imagespath%>dark-red-rectangle-safe.jpg","<%values.imagespath%>light-red-triangle-safe.jpg"
"5.0.10.0","110917","16:58:12","5015","26","testblock","2","smallgain","121","hammer.jpg","2","2","47","0","2500","risky2","safe2","<%values.imagespath%>light-blue-star-risky.jpg","<%values.imagespath%>light-red-triangle-safe.jpg","left","risky2","40","829","faces","tools","animals","places","<%values.imagespath%>face-03.jpg","<%values.imagespath%>hammer.jpg","<%values.imagespath%>animal-silhouette-dog2nohead.jpg","<%values.imagespath%>house.jpg","<%values.imagespath%>dark-blue-circle-risky.jpg","<%values.imagespath%>light-blue-star-risky.jpg","<%values.imagespath%>dark-red-rectangle-safe.jpg","<%values.imagespath%>light-red-triangle-safe.jpg"
"5.0.10.0","110917","16:58:12","5015","26","testblock","2","risky2question","123","light-blue-star-risky.jpg","Why did you choose this machine? Press:              1 = 'To avoid -9'             2 = 'To avoid -1'             3 = 'To gain  2'             4 = 'To gain  10'","2","47","5","166","risky2","safe2","<%values.imagespath%>light-blue-star-risky.jpg","<%values.imagespath%>light-red-triangle-safe.jpg","left","risky2","41","549","faces","tools","animals","places","<%values.imagespath%>face-03.jpg","<%values.imagespath%>hammer.jpg","<%values.imagespath%>animal-silhouette-dog2nohead.jpg","<%values.imagespath%>house.jpg","<%values.imagespath%>dark-blue-circle-risky.jpg","<%values.imagespath%>light-blue-star-risky.jpg","<%values.imagespath%>dark-red-rectangle-safe.jpg","<%values.imagespath%>light-red-triangle-safe.jpg"
"5.0.10.0","110917","16:58:12","5015","26","testblock","2","largegain","124","face-03.jpg","10","10","57","0","2500","risky2","safe2","<%values.imagespath%>light-blue-star-risky.jpg","<%values.imagespath%>light-red-triangle-safe.jpg","left","risky2","41","549","faces","tools","animals","places","<%values.imagespath%>face-03.jpg","<%values.imagespath%>hammer.jpg","<%values.imagespath%>animal-silhouette-dog2nohead.jpg","<%values.imagespath%>house.jpg","<%values.imagespath%>dark-blue-circle-risky.jpg","<%values.imagespath%>light-blue-star-risky.jpg","<%values.imagespath%>dark-red-rectangle-safe.jpg","<%values.imagespath%>light-red-triangle-safe.jpg"
"5.0.10.0","110917","16:58:12","5015","26","testblock","2","safe1question","126","dark-red-rectangle-safe.jpg","Why did you choose this machine? Press:              1 = 'To avoid -9'             2 = 'To avoid -1'             3 = 'To gain  2'             4 = 'To gain  10'","10","57","2","98","safe1","risky1","<%values.imagespath%>dark-red-rectangle-safe.jpg","<%values.imagespath%>dark-blue-circle-risky.jpg","left","safe1","42","1087","faces","tools","animals","places","<%values.imagespath%>face-03.jpg","<%values.imagespath%>hammer.jpg","<%values.imagespath%>animal-silhouette-dog2nohead.jpg","<%values.imagespath%>house.jpg","<%values.imagespath%>dark-blue-circle-risky.jpg","<%values.imagespath%>light-blue-star-risky.jpg","<%values.imagespath%>dark-red-rectangle-safe.jpg","<%values.imagespath%>light-red-triangle-safe.jpg"
"5.0.10.0","110917","16:58:12","5015","26","testblock","2","largeloss","127","house.jpg","-9","-9","48","0","2500","safe1","risky1","<%values.imagespath%>dark-red-rectangle-safe.jpg","<%values.imagespath%>dark-blue-circle-risky.jpg","left","safe1","42","1087","faces","tools","animals","places","<%values.imagespath%>face-03.jpg","<%values.imagespath%>hammer.jpg","<%values.imagespath%>animal-silhouette-dog2nohead.jpg","<%values.imagespath%>house.jpg","<%values.imagespath%>dark-blue-circle-risky.jpg","<%values.imagespath%>light-blue-star-risky.jpg","<%values.imagespath%>dark-red-rectangle-safe.jpg","<%values.imagespath%>light-red-triangle-safe.jpg"
"5.0.10.0","110917","16:58:12","5015","26","testblock","2","safe1question","129","dark-red-rectangle-safe.jpg","Why did you choose this machine? Press:              1 = 'To avoid -9'             2 = 'To avoid -1'             3 = 'To gain  2'             4 = 'To gain  10'","-9","48","2","129","safe1","risky1","<%values.imagespath%>dark-red-rectangle-safe.jpg","<%values.imagespath%>dark-blue-circle-risky.jpg","left","safe1","43","1104","faces","tools","animals","places","<%values.imagespath%>face-03.jpg","<%values.imagespath%>hammer.jpg","<%values.imagespath%>animal-silhouette-dog2nohead.jpg","<%values.imagespath%>house.jpg","<%values.imagespath%>dark-blue-circle-risky.jpg","<%values.imagespath%>light-blue-star-risky.jpg","<%values.imagespath%>dark-red-rectangle-safe.jpg","<%values.imagespath%>light-red-triangle-safe.jpg"
"5.0.10.0","110917","16:58:12","5015","26","testblock","2","smallgain","130","hammer.jpg","2","2","50","0","2500","safe1","risky1","<%values.imagespath%>dark-red-rectangle-safe.jpg","<%values.imagespath%>dark-blue-circle-risky.jpg","left","safe1","43","1104","faces","tools","animals","places","<%values.imagespath%>face-03.jpg","<%values.imagespath%>hammer.jpg","<%values.imagespath%>animal-silhouette-dog2nohead.jpg","<%values.imagespath%>house.jpg","<%values.imagespath%>dark-blue-circle-risky.jpg","<%values.imagespath%>light-blue-star-risky.jpg","<%values.imagespath%>dark-red-rectangle-safe.jpg","<%values.imagespath%>light-red-triangle-safe.jpg"
"5.0.10.0","110917","16:58:12","5015","26","testblock","2","risky1question","132","dark-blue-circle-risky.jpg","Why did you choose this machine? Press:              1 = 'To avoid -9'             2 = 'To avoid -1'             3 = 'To gain  2'             4 = 'To gain  10'","2","50","5","163","risky1","safe1","<%values.imagespath%>dark-blue-circle-risky.jpg","<%values.imagespath%>dark-red-rectangle-safe.jpg","left","risky1","44","1229","faces","tools","animals","places","<%values.imagespath%>face-03.jpg","<%values.imagespath%>hammer.jpg","<%values.imagespath%>animal-silhouette-dog2nohead.jpg","<%values.imagespath%>house.jpg","<%values.imagespath%>dark-blue-circle-risky.jpg","<%values.imagespath%>light-blue-star-risky.jpg","<%values.imagespath%>dark-red-rectangle-safe.jpg","<%values.imagespath%>light-red-triangle-safe.jpg"
"5.0.10.0","110917","16:58:12","5015","26","testblock","2","largeloss","133","house.jpg","-9","-9","41","0","2500","risky1","safe1","<%values.imagespath%>dark-blue-circle-risky.jpg","<%values.imagespath%>dark-red-rectangle-safe.jpg","left","risky1","44","1229","faces","tools","animals","places","<%values.imagespath%>face-03.jpg","<%values.imagespath%>hammer.jpg","<%values.imagespath%>animal-silhouette-dog2nohead.jpg","<%values.imagespath%>house.jpg","<%values.imagespath%>dark-blue-circle-risky.jpg","<%values.imagespath%>light-blue-star-risky.jpg","<%values.imagespath%>dark-red-rectangle-safe.jpg","<%values.imagespath%>light-red-triangle-safe.jpg"
"5.0.10.0","110917","16:58:12","5015","26","testblock","2","safe1question","135","dark-red-rectangle-safe.jpg","Why did you choose this machine? Press:              1 = 'To avoid -9'             2 = 'To avoid -1'             3 = 'To gain  2'             4 = 'To gain  10'","-9","41","2","146","risky2","safe1","<%values.imagespath%>light-blue-star-risky.jpg","<%values.imagespath%>dark-red-rectangle-safe.jpg","right","safe1","45","5485","faces","tools","animals","places","<%values.imagespath%>face-03.jpg","<%values.imagespath%>hammer.jpg","<%values.imagespath%>animal-silhouette-dog2nohead.jpg","<%values.imagespath%>house.jpg","<%values.imagespath%>dark-blue-circle-risky.jpg","<%values.imagespath%>light-blue-star-risky.jpg","<%values.imagespath%>dark-red-rectangle-safe.jpg","<%values.imagespath%>light-red-triangle-safe.jpg"
"5.0.10.0","110917","16:58:12","5015","26","testblock","2","smallloss","136","animal-silhouette-dog2nohead.jpg","2","-1","40","0","2500","risky2","safe1","<%values.imagespath%>light-blue-star-risky.jpg","<%values.imagespath%>dark-red-rectangle-safe.jpg","right","safe1","45","5485","faces","tools","animals","places","<%values.imagespath%>face-03.jpg","<%values.imagespath%>hammer.jpg","<%values.imagespath%>animal-silhouette-dog2nohead.jpg","<%values.imagespath%>house.jpg","<%values.imagespath%>dark-blue-circle-risky.jpg","<%values.imagespath%>light-blue-star-risky.jpg","<%values.imagespath%>dark-red-rectangle-safe.jpg","<%values.imagespath%>light-red-triangle-safe.jpg"
"5.0.10.0","110917","16:58:12","5015","26","testblock","2","risky2question","138","light-blue-star-risky.jpg","Why did you choose this machine? Press:              1 = 'To avoid -9'             2 = 'To avoid -1'             3 = 'To gain  2'             4 = 'To gain  10'","-1","40","5","763","safe2","risky2","<%values.imagespath%>light-red-triangle-safe.jpg","<%values.imagespath%>light-blue-star-risky.jpg","right","risky2","46","2845","faces","tools","animals","places","<%values.imagespath%>face-03.jpg","<%values.imagespath%>hammer.jpg","<%values.imagespath%>animal-silhouette-dog2nohead.jpg","<%values.imagespath%>house.jpg","<%values.imagespath%>dark-blue-circle-risky.jpg","<%values.imagespath%>light-blue-star-risky.jpg","<%values.imagespath%>dark-red-rectangle-safe.jpg","<%values.imagespath%>light-red-triangle-safe.jpg"
"5.0.10.0","110917","16:58:12","5015","26","testblock","2","largeloss","139","house.jpg","-9","-9","31","0","2500","safe2","risky2","<%values.imagespath%>light-red-triangle-safe.jpg","<%values.imagespath%>light-blue-star-risky.jpg","right","risky2","46","2845","faces","tools","animals","places","<%values.imagespath%>face-03.jpg","<%values.imagespath%>hammer.jpg","<%values.imagespath%>animal-silhouette-dog2nohead.jpg","<%values.imagespath%>house.jpg","<%values.imagespath%>dark-blue-circle-risky.jpg","<%values.imagespath%>light-blue-star-risky.jpg","<%values.imagespath%>dark-red-rectangle-safe.jpg","<%values.imagespath%>light-red-triangle-safe.jpg"
"5.0.10.0","110917","16:58:12","5015","26","testblock","2","risky2question","141","light-blue-star-risky.jpg","Why did you choose this machine? Press:              1 = 'To avoid -9'             2 = 'To avoid -1'             3 = 'To gain  2'             4 = 'To gain  10'","-9","31","5","153","safe2","risky2","<%values.imagespath%>light-red-triangle-safe.jpg","<%values.imagespath%>light-blue-star-risky.jpg","right","risky2","47","1685","faces","tools","animals","places","<%values.imagespath%>face-03.jpg","<%values.imagespath%>hammer.jpg","<%values.imagespath%>animal-silhouette-dog2nohead.jpg","<%values.imagespath%>house.jpg","<%values.imagespath%>dark-blue-circle-risky.jpg","<%values.imagespath%>light-blue-star-risky.jpg","<%values.imagespath%>dark-red-rectangle-safe.jpg","<%values.imagespath%>light-red-triangle-safe.jpg"
"5.0.10.0","110917","16:58:12","5015","26","testblock","2","largegain","142","face-03.jpg","10","10","41","0","2500","safe2","risky2","<%values.imagespath%>light-red-triangle-safe.jpg","<%values.imagespath%>light-blue-star-risky.jpg","right","risky2","47","1685","faces","tools","animals","places","<%values.imagespath%>face-03.jpg","<%values.imagespath%>hammer.jpg","<%values.imagespath%>animal-silhouette-dog2nohead.jpg","<%values.imagespath%>house.jpg","<%values.imagespath%>dark-blue-circle-risky.jpg","<%values.imagespath%>light-blue-star-risky.jpg","<%values.imagespath%>dark-red-rectangle-safe.jpg","<%values.imagespath%>light-red-triangle-safe.jpg"
"5.0.10.0","110917","16:58:12","5015","26","testblock","2","risky2question","144","light-blue-star-risky.jpg","Why did you choose this machine? Press:              1 = 'To avoid -9'             2 = 'To avoid -1'             3 = 'To gain  2'             4 = 'To gain  10'","10","41","5","119","safe1","risky2","<%values.imagespath%>dark-red-rectangle-safe.jpg","<%values.imagespath%>light-blue-star-risky.jpg","right","risky2","48","1067","faces","tools","animals","places","<%values.imagespath%>face-03.jpg","<%values.imagespath%>hammer.jpg","<%values.imagespath%>animal-silhouette-dog2nohead.jpg","<%values.imagespath%>house.jpg","<%values.imagespath%>dark-blue-circle-risky.jpg","<%values.imagespath%>light-blue-star-risky.jpg","<%values.imagespath%>dark-red-rectangle-safe.jpg","<%values.imagespath%>light-red-triangle-safe.jpg"
"5.0.10.0","110917","16:58:12","5015","26","testblock","2","largegain","145","face-03.jpg","10","10","51","0","2500","safe1","risky2","<%values.imagespath%>dark-red-rectangle-safe.jpg","<%values.imagespath%>light-blue-star-risky.jpg","right","risky2","48","1067","faces","tools","animals","places","<%values.imagespath%>face-03.jpg","<%values.imagespath%>hammer.jpg","<%values.imagespath%>animal-silhouette-dog2nohead.jpg","<%values.imagespath%>house.jpg","<%values.imagespath%>dark-blue-circle-risky.jpg","<%values.imagespath%>light-blue-star-risky.jpg","<%values.imagespath%>dark-red-rectangle-safe.jpg","<%values.imagespath%>light-red-triangle-safe.jpg"
"5.0.10.0","110917","16:58:12","5015","26","testblock","2","risky1question","147","dark-blue-circle-risky.jpg","Why did you choose this machine? Press:              1 = 'To avoid -9'             2 = 'To avoid -1'             3 = 'To gain  2'             4 = 'To gain  10'","10","51","5","108","safe2","risky1","<%values.imagespath%>light-red-triangle-safe.jpg","<%values.imagespath%>dark-blue-circle-risky.jpg","right","risky2","49","930","faces","tools","animals","places","<%values.imagespath%>face-03.jpg","<%values.imagespath%>hammer.jpg","<%values.imagespath%>animal-silhouette-dog2nohead.jpg","<%values.imagespath%>house.jpg","<%values.imagespath%>dark-blue-circle-risky.jpg","<%values.imagespath%>light-blue-star-risky.jpg","<%values.imagespath%>dark-red-rectangle-safe.jpg","<%values.imagespath%>light-red-triangle-safe.jpg"
"5.0.10.0","110917","16:58:12","5015","26","testblock","2","smallgain","148","hammer.jpg","2","2","53","0","2500","safe2","risky1","<%values.imagespath%>light-red-triangle-safe.jpg","<%values.imagespath%>dark-blue-circle-risky.jpg","right","risky2","49","930","faces","tools","animals","places","<%values.imagespath%>face-03.jpg","<%values.imagespath%>hammer.jpg","<%values.imagespath%>animal-silhouette-dog2nohead.jpg","<%values.imagespath%>house.jpg","<%values.imagespath%>dark-blue-circle-risky.jpg","<%values.imagespath%>light-blue-star-risky.jpg","<%values.imagespath%>dark-red-rectangle-safe.jpg","<%values.imagespath%>light-red-triangle-safe.jpg"
"5.0.10.0","110917","16:58:12","5015","26","testblock","2","risky2question","150","light-blue-star-risky.jpg","Why did you choose this machine? Press:              1 = 'To avoid -9'             2 = 'To avoid -1'             3 = 'To gain  2'             4 = 'To gain  10'","2","53","5","87","safe2","risky2","<%values.imagespath%>light-red-triangle-safe.jpg","<%values.imagespath%>light-blue-star-risky.jpg","right","risky2","50","1000","faces","tools","animals","places","<%values.imagespath%>face-03.jpg","<%values.imagespath%>hammer.jpg","<%values.imagespath%>animal-silhouette-dog2nohead.jpg","<%values.imagespath%>house.jpg","<%values.imagespath%>dark-blue-circle-risky.jpg","<%values.imagespath%>light-blue-star-risky.jpg","<%values.imagespath%>dark-red-rectangle-safe.jpg","<%values.imagespath%>light-red-triangle-safe.jpg"
"5.0.10.0","110917","16:58:12","5015","26","testblock","2","smallloss","151","animal-silhouette-dog2nohead.jpg","2","-1","52","0","2500","safe2","risky2","<%values.imagespath%>light-red-triangle-safe.jpg","<%values.imagespath%>light-blue-star-risky.jpg","right","risky2","50","1000","faces","tools","animals","places","<%values.imagespath%>face-03.jpg","<%values.imagespath%>hammer.jpg","<%values.imagespath%>animal-silhouette-dog2nohead.jpg","<%values.imagespath%>house.jpg","<%values.imagespath%>dark-blue-circle-risky.jpg","<%values.imagespath%>light-blue-star-risky.jpg","<%values.imagespath%>dark-red-rectangle-safe.jpg","<%values.imagespath%>light-red-triangle-safe.jpg"
"5.0.10.0","110917","16:58:12","5015","26","attentionQuiz","3","attentionQuizLargeGain","1","What value did this stamp map too? Please type in the number.","face-03.jpg","-1","52","10","11491","safe2","risky2","<%values.imagespath%>light-red-triangle-safe.jpg","<%values.imagespath%>light-blue-star-risky.jpg","right","risky2","50","1000","faces","tools","animals","places","<%values.imagespath%>face-03.jpg","<%values.imagespath%>hammer.jpg","<%values.imagespath%>animal-silhouette-dog2nohead.jpg","<%values.imagespath%>house.jpg","<%values.imagespath%>dark-blue-circle-risky.jpg","<%values.imagespath%>light-blue-star-risky.jpg","<%values.imagespath%>dark-red-rectangle-safe.jpg","<%values.imagespath%>light-red-triangle-safe.jpg"
"5.0.10.0","110917","16:58:12","5015","26","attentionQuiz","3","attentionQuizSmallGain","2","What value did this stamp map too? Please type in the number.","hammer.jpg","-1","52","2","6510","safe2","risky2","<%values.imagespath%>light-red-triangle-safe.jpg","<%values.imagespath%>light-blue-star-risky.jpg","right","risky2","50","1000","faces","tools","animals","places","<%values.imagespath%>face-03.jpg","<%values.imagespath%>hammer.jpg","<%values.imagespath%>animal-silhouette-dog2nohead.jpg","<%values.imagespath%>house.jpg","<%values.imagespath%>dark-blue-circle-risky.jpg","<%values.imagespath%>light-blue-star-risky.jpg","<%values.imagespath%>dark-red-rectangle-safe.jpg","<%values.imagespath%>light-red-triangle-safe.jpg"
"5.0.10.0","110917","16:58:12","5015","26","attentionQuiz","3","attentionQuizLargeLoss","3","What value did this stamp map too? Please type in the number.","house.jpg","-1","52","9","5944","safe2","risky2","<%values.imagespath%>light-red-triangle-safe.jpg","<%values.imagespath%>light-blue-star-risky.jpg","right","risky2","50","1000","faces","tools","animals","places","<%values.imagespath%>face-03.jpg","<%values.imagespath%>hammer.jpg","<%values.imagespath%>animal-silhouette-dog2nohead.jpg","<%values.imagespath%>house.jpg","<%values.imagespath%>dark-blue-circle-risky.jpg","<%values.imagespath%>light-blue-star-risky.jpg","<%values.imagespath%>dark-red-rectangle-safe.jpg","<%values.imagespath%>light-red-triangle-safe.jpg"
"5.0.10.0","110917","16:58:12","5015","26","attentionQuiz","3","attentionQuizSmallLoss","4","What value did this stamp map too? Please type in the number.","animal-silhouette-dog2nohead.jpg","-1","52","-2","5978","safe2","risky2","<%values.imagespath%>light-red-triangle-safe.jpg","<%values.imagespath%>light-blue-star-risky.jpg","right","risky2","50","1000","faces","tools","animals","places","<%values.imagespath%>face-03.jpg","<%values.imagespath%>hammer.jpg","<%values.imagespath%>animal-silhouette-dog2nohead.jpg","<%values.imagespath%>house.jpg","<%values.imagespath%>dark-blue-circle-risky.jpg","<%values.imagespath%>light-blue-star-risky.jpg","<%values.imagespath%>dark-red-rectangle-safe.jpg","<%values.imagespath%>light-red-triangle-safe.jpg"
"5.0.10.0","110917","16:58:12","5015","26","thankYouAndPaymentBlock","4","thankYouAndPaymentTrial","1","Thank you for participating in this study.","0","-1","52","57","34469","safe2","risky2","<%values.imagespath%>light-red-triangle-safe.jpg","<%values.imagespath%>light-blue-star-risky.jpg","right","risky2","50","1000","faces","tools","animals","places","<%values.imagespath%>face-03.jpg","<%values.imagespath%>hammer.jpg","<%values.imagespath%>animal-silhouette-dog2nohead.jpg","<%values.imagespath%>house.jpg","<%values.imagespath%>dark-blue-circle-risky.jpg","<%values.imagespath%>light-blue-star-risky.jpg","<%values.imagespath%>dark-red-rectangle-safe.jpg","<%values.imagespath%>light-red-triangle-safe.jpg"
"5.0.10.0","110917","16:40:16","5014","25","initial_instructions","1","instructions_main","1","slide01.jpg","0","0","0","57","11089","NA","NA","NA","NA","NA","NA","0","NA","faces","places","tools","animals","<%values.imagespath%>face-03.jpg","<%values.imagespath%>house.jpg","<%values.imagespath%>hammer.jpg","<%values.imagespath%>animal-silhouette-dog2nohead.jpg","<%values.imagespath%>dark-blue-circle-risky.jpg","<%values.imagespath%>light-blue-star-risky.jpg","<%values.imagespath%>dark-red-rectangle-safe.jpg","<%values.imagespath%>light-red-triangle-safe.jpg"
"5.0.10.0","110917","16:40:16","5014","25","initial_instructions","1","instructions_main","2","slide02.jpg","0","0","0","57","17168","NA","NA","NA","NA","NA","NA","0","NA","faces","places","tools","animals","<%values.imagespath%>face-03.jpg","<%values.imagespath%>house.jpg","<%values.imagespath%>hammer.jpg","<%values.imagespath%>animal-silhouette-dog2nohead.jpg","<%values.imagespath%>dark-blue-circle-risky.jpg","<%values.imagespath%>light-blue-star-risky.jpg","<%values.imagespath%>dark-red-rectangle-safe.jpg","<%values.imagespath%>light-red-triangle-safe.jpg"
"5.0.10.0","110917","16:40:16","5014","25","initial_instructions","1","instructions_main","3","slide03.jpg","0","0","0","57","16965","NA","NA","NA","NA","NA","NA","0","NA","faces","places","tools","animals","<%values.imagespath%>face-03.jpg","<%values.imagespath%>house.jpg","<%values.imagespath%>hammer.jpg","<%values.imagespath%>animal-silhouette-dog2nohead.jpg","<%values.imagespath%>dark-blue-circle-risky.jpg","<%values.imagespath%>light-blue-star-risky.jpg","<%values.imagespath%>dark-red-rectangle-safe.jpg","<%values.imagespath%>light-red-triangle-safe.jpg"
"5.0.10.0","110917","16:40:16","5014","25","initial_instructions","1","instructions_main","4","slide06.jpg","0","0","0","57","20139","NA","NA","NA","NA","NA","NA","0","NA","faces","places","tools","animals","<%values.imagespath%>face-03.jpg","<%values.imagespath%>house.jpg","<%values.imagespath%>hammer.jpg","<%values.imagespath%>animal-silhouette-dog2nohead.jpg","<%values.imagespath%>dark-blue-circle-risky.jpg","<%values.imagespath%>light-blue-star-risky.jpg","<%values.imagespath%>dark-red-rectangle-safe.jpg","<%values.imagespath%>light-red-triangle-safe.jpg"
"5.0.10.0","110917","16:40:16","5014","25","initial_instructions","1","instructions_main","5","slide07.jpg","0","0","0","57","18498","NA","NA","NA","NA","NA","NA","0","NA","faces","places","tools","animals","<%values.imagespath%>face-03.jpg","<%values.imagespath%>house.jpg","<%values.imagespath%>hammer.jpg","<%values.imagespath%>animal-silhouette-dog2nohead.jpg","<%values.imagespath%>dark-blue-circle-risky.jpg","<%values.imagespath%>light-blue-star-risky.jpg","<%values.imagespath%>dark-red-rectangle-safe.jpg","<%values.imagespath%>light-red-triangle-safe.jpg"
"5.0.10.0","110917","16:40:16","5014","25","initial_instructions","1","instructions_dists","6","Each machine can give you ANY OF THE 4 STAMPS with their corresponding points. However, the blue machines are MORE LIKLEY to give you stamps that let you GAIN MANY points (faces, +10 points) but may also give you stamps where you LOSE MANY points (animals, -9 points).    On the other hand, the red machines are MORE LIKELY to give you stamps where you GAIN LESS points (places, +2 points) but also stamps where you LOSE LESS points (tools, -1 points).  To remind you of this while playing, you will see numbers above each machine. The numbers in BOLD tell you the amount of points that machine is MORE LIKELY to give you...             Press Spacebar to continue","group-redSafe-blueRisky.jpg","0","0","57","56081","NA","NA","NA","NA","NA","NA","0","NA","faces","places","tools","animals","<%values.imagespath%>face-03.jpg","<%values.imagespath%>house.jpg","<%values.imagespath%>hammer.jpg","<%values.imagespath%>animal-silhouette-dog2nohead.jpg","<%values.imagespath%>dark-blue-circle-risky.jpg","<%values.imagespath%>light-blue-star-risky.jpg","<%values.imagespath%>dark-red-rectangle-safe.jpg","<%values.imagespath%>light-red-triangle-safe.jpg"
"5.0.10.0","110917","16:40:16","5014","25","initial_instructions","1","instructions_dists","7","Note that, over the long run all of the machines will give you the SAME amount of points. The only difference is in which types of stamps are more likely to appear, ones that give you large gains and losses, vs smaller gains and losses. Don't forget that each machine can give you ALL 4 types of stamps!                     Press Spacebar to continue","group-redSafe-blueRisky.jpg","0","0","57","19791","NA","NA","NA","NA","NA","NA","0","NA","faces","places","tools","animals","<%values.imagespath%>face-03.jpg","<%values.imagespath%>house.jpg","<%values.imagespath%>hammer.jpg","<%values.imagespath%>animal-silhouette-dog2nohead.jpg","<%values.imagespath%>dark-blue-circle-risky.jpg","<%values.imagespath%>light-blue-star-risky.jpg","<%values.imagespath%>dark-red-rectangle-safe.jpg","<%values.imagespath%>light-red-triangle-safe.jpg"
"5.0.10.0","110917","16:40:16","5014","25","initial_instructions","1","instructionslides_selectright","8","slide09.jpg","0","0","0","36","22293","NA","NA","NA","NA","NA","NA","0","NA","faces","places","tools","animals","<%values.imagespath%>face-03.jpg","<%values.imagespath%>house.jpg","<%values.imagespath%>hammer.jpg","<%values.imagespath%>animal-silhouette-dog2nohead.jpg","<%values.imagespath%>dark-blue-circle-risky.jpg","<%values.imagespath%>light-blue-star-risky.jpg","<%values.imagespath%>dark-red-rectangle-safe.jpg","<%values.imagespath%>light-red-triangle-safe.jpg"
"5.0.10.0","110917","16:40:16","5014","25","initial_instructions","1","instructionslides_selectleft","9","slide10.jpg","0","0","0","33","3903","NA","NA","NA","NA","NA","NA","0","NA","faces","places","tools","animals","<%values.imagespath%>face-03.jpg","<%values.imagespath%>house.jpg","<%values.imagespath%>hammer.jpg","<%values.imagespath%>animal-silhouette-dog2nohead.jpg","<%values.imagespath%>dark-blue-circle-risky.jpg","<%values.imagespath%>light-blue-star-risky.jpg","<%values.imagespath%>dark-red-rectangle-safe.jpg","<%values.imagespath%>light-red-triangle-safe.jpg"
"5.0.10.0","110917","16:40:16","5014","25","initial_instructions","1","instructionSlidesLastSection","10","slide14.jpg","0","0","0","57","8634","NA","NA","NA","NA","NA","NA","0","NA","faces","places","tools","animals","<%values.imagespath%>face-03.jpg","<%values.imagespath%>house.jpg","<%values.imagespath%>hammer.jpg","<%values.imagespath%>animal-silhouette-dog2nohead.jpg","<%values.imagespath%>dark-blue-circle-risky.jpg","<%values.imagespath%>light-blue-star-risky.jpg","<%values.imagespath%>dark-red-rectangle-safe.jpg","<%values.imagespath%>light-red-triangle-safe.jpg"
"5.0.10.0","110917","16:40:16","5014","25","initial_instructions","1","instructionSlidesLastSection","11","slide15.jpg","0","0","0","57","21698","NA","NA","NA","NA","NA","NA","0","NA","faces","places","tools","animals","<%values.imagespath%>face-03.jpg","<%values.imagespath%>house.jpg","<%values.imagespath%>hammer.jpg","<%values.imagespath%>animal-silhouette-dog2nohead.jpg","<%values.imagespath%>dark-blue-circle-risky.jpg","<%values.imagespath%>light-blue-star-risky.jpg","<%values.imagespath%>dark-red-rectangle-safe.jpg","<%values.imagespath%>light-red-triangle-safe.jpg"
"5.0.10.0","110917","16:40:16","5014","25","initial_instructions","1","instructionSlidesLastSection","12","slide16.jpg","0","0","0","57","10900","NA","NA","NA","NA","NA","NA","0","NA","faces","places","tools","animals","<%values.imagespath%>face-03.jpg","<%values.imagespath%>house.jpg","<%values.imagespath%>hammer.jpg","<%values.imagespath%>animal-silhouette-dog2nohead.jpg","<%values.imagespath%>dark-blue-circle-risky.jpg","<%values.imagespath%>light-blue-star-risky.jpg","<%values.imagespath%>dark-red-rectangle-safe.jpg","<%values.imagespath%>light-red-triangle-safe.jpg"
"5.0.10.0","110917","16:40:16","5014","25","testblock","2","safe2question","2","light-red-triangle-safe.jpg","Why did you choose this machine? Press:              1 = 'To avoid -9'             2 = 'To avoid -1'             3 = 'To gain  2'             4 = 'To gain  10'","0","0","4","8365","risky2","safe2","<%values.imagespath%>light-blue-star-risky.jpg","<%values.imagespath%>light-red-triangle-safe.jpg","right","safe2","1","8604","faces","places","tools","animals","<%values.imagespath%>face-03.jpg","<%values.imagespath%>house.jpg","<%values.imagespath%>hammer.jpg","<%values.imagespath%>animal-silhouette-dog2nohead.jpg","<%values.imagespath%>dark-blue-circle-risky.jpg","<%values.imagespath%>light-blue-star-risky.jpg","<%values.imagespath%>dark-red-rectangle-safe.jpg","<%values.imagespath%>light-red-triangle-safe.jpg"
"5.0.10.0","110917","16:40:16","5014","25","testblock","2","smallloss","3","hammer.jpg","2","-1","-1","0","2500","risky2","safe2","<%values.imagespath%>light-blue-star-risky.jpg","<%values.imagespath%>light-red-triangle-safe.jpg","right","safe2","1","8604","faces","places","tools","animals","<%values.imagespath%>face-03.jpg","<%values.imagespath%>house.jpg","<%values.imagespath%>hammer.jpg","<%values.imagespath%>animal-silhouette-dog2nohead.jpg","<%values.imagespath%>dark-blue-circle-risky.jpg","<%values.imagespath%>light-blue-star-risky.jpg","<%values.imagespath%>dark-red-rectangle-safe.jpg","<%values.imagespath%>light-red-triangle-safe.jpg"
"5.0.10.0","110917","16:40:16","5014","25","testblock","2","safe1question","5","dark-red-rectangle-safe.jpg","Why did you choose this machine? Press:              1 = 'To avoid -9'             2 = 'To avoid -1'             3 = 'To gain  2'             4 = 'To gain  10'","-1","-1","4","1593","risky1","safe1","<%values.imagespath%>dark-blue-circle-risky.jpg","<%values.imagespath%>dark-red-rectangle-safe.jpg","right","safe1","2","3360","faces","places","tools","animals","<%values.imagespath%>face-03.jpg","<%values.imagespath%>house.jpg","<%values.imagespath%>hammer.jpg","<%values.imagespath%>animal-silhouette-dog2nohead.jpg","<%values.imagespath%>dark-blue-circle-risky.jpg","<%values.imagespath%>light-blue-star-risky.jpg","<%values.imagespath%>dark-red-rectangle-safe.jpg","<%values.imagespath%>light-red-triangle-safe.jpg"
"5.0.10.0","110917","16:40:16","5014","25","testblock","2","smallgain","6","house.jpg","2","2","1","0","2500","risky1","safe1","<%values.imagespath%>dark-blue-circle-risky.jpg","<%values.imagespath%>dark-red-rectangle-safe.jpg","right","safe1","2","3360","faces","places","tools","animals","<%values.imagespath%>face-03.jpg","<%values.imagespath%>house.jpg","<%values.imagespath%>hammer.jpg","<%values.imagespath%>animal-silhouette-dog2nohead.jpg","<%values.imagespath%>dark-blue-circle-risky.jpg","<%values.imagespath%>light-blue-star-risky.jpg","<%values.imagespath%>dark-red-rectangle-safe.jpg","<%values.imagespath%>light-red-triangle-safe.jpg"
"5.0.10.0","110917","16:40:16","5014","25","testblock","2","safe1question","8","dark-red-rectangle-safe.jpg","Why did you choose this machine? Press:              1 = 'To avoid -9'             2 = 'To avoid -1'             3 = 'To gain  2'             4 = 'To gain  10'","2","1","4","1996","risky2","safe1","<%values.imagespath%>light-blue-star-risky.jpg","<%values.imagespath%>dark-red-rectangle-safe.jpg","right","safe1","3","5779","faces","places","tools","animals","<%values.imagespath%>face-03.jpg","<%values.imagespath%>house.jpg","<%values.imagespath%>hammer.jpg","<%values.imagespath%>animal-silhouette-dog2nohead.jpg","<%values.imagespath%>dark-blue-circle-risky.jpg","<%values.imagespath%>light-blue-star-risky.jpg","<%values.imagespath%>dark-red-rectangle-safe.jpg","<%values.imagespath%>light-red-triangle-safe.jpg"
"5.0.10.0","110917","16:40:16","5014","25","testblock","2","smallgain","9","house.jpg","2","2","3","0","2500","risky2","safe1","<%values.imagespath%>light-blue-star-risky.jpg","<%values.imagespath%>dark-red-rectangle-safe.jpg","right","safe1","3","5779","faces","places","tools","animals","<%values.imagespath%>face-03.jpg","<%values.imagespath%>house.jpg","<%values.imagespath%>hammer.jpg","<%values.imagespath%>animal-silhouette-dog2nohead.jpg","<%values.imagespath%>dark-blue-circle-risky.jpg","<%values.imagespath%>light-blue-star-risky.jpg","<%values.imagespath%>dark-red-rectangle-safe.jpg","<%values.imagespath%>light-red-triangle-safe.jpg"
